onset	duration	balloon_number	balloon_idx	response	pumps	pumps_demean_all	pumps_demean_type	balloon_type	balloon_outcome	balloon_maxpumps	balloon_colour	balloon_payoff_cumulative	balloon_payoff_total	onset_explosion	duration_explosion
4.057	0.618	1	1	pump	5	-7.07407407407407	-4.66666666666667	linear	cashout	12	red	0.1	0.5	NA	NA
6.441	3.54	1	2	pump	5	-6.07407407407407	-3.66666666666667	linear	cashout	12	red	0.2	0.5	NA	NA
11.924	1.744	1	3	pump	5	-5.07407407407407	-2.66666666666667	linear	cashout	12	red	0.3	0.5	NA	NA
14.874	2.408	1	4	pump	5	-4.07407407407407	-1.66666666666667	linear	cashout	12	red	0.4	0.5	NA	NA
19.174	0.73	1	5	pump	5	-3.07407407407407	-0.666666666666667	linear	cashout	12	red	0.5	0.5	NA	NA
21.407	0.653	1	6	cashout	5	NA	NA	linear	cashout	12	red	0.6	0.5	NA	NA
28.726	0.706	2	1	pump	7	-7.07407407407407	-5.77777777777778	exponential	cashout	12	blue	0.01	0.6	NA	NA
31.359	0.665	2	2	pump	7	-6.07407407407407	-4.77777777777778	exponential	cashout	12	blue	0.0428709385014517	0.6	NA	NA
33.841	0.645	2	3	pump	7	-5.07407407407407	-3.77777777777778	exponential	cashout	12	blue	0.100451085663051	0.6	NA	NA
35.941	0.605	2	4	pump	7	-4.07407407407407	-2.77777777777778	exponential	cashout	12	blue	0.183791736799526	0.6	NA	NA
38.274	0.499	2	5	pump	7	-3.07407407407407	-1.77777777777778	exponential	cashout	12	blue	0.293654735772005	0.6	NA	NA
40.307	0.596	2	6	pump	7	-2.07407407407407	-0.777777777777778	exponential	cashout	12	blue	0.430643231586474	0.6	NA	NA
42.774	0.95	2	7	pump	7	-1.07407407407407	0.222222222222222	exponential	cashout	12	blue	0.595258881579143	0.6	NA	NA
44.974	0.7	2	8	cashout	7	NA	NA	exponential	cashout	12	blue	0.787932424540747	0.6	NA	NA
52.207	1.265	3	1	pump	9	-7.07407407407407	-10.7777777777778	control	control	9	grey	0	0	NA	NA
55.241	0.399	3	2	pump	9	-6.07407407407407	-9.77777777777778	control	control	9	grey	0	0	NA	NA
57.124	0.416	3	3	pump	9	-5.07407407407407	-8.77777777777778	control	control	9	grey	0	0	NA	NA
58.966	0.395	3	4	pump	9	-4.07407407407407	-7.77777777777778	control	control	9	grey	0	0	NA	NA
61.407	0.403	3	5	pump	9	-3.07407407407407	-6.77777777777778	control	control	9	grey	0	0	NA	NA
63.324	0.461	3	6	pump	9	-2.07407407407407	-5.77777777777778	control	control	9	grey	0	0	NA	NA
65.091	0.423	3	7	pump	9	-1.07407407407407	-4.77777777777778	control	control	9	grey	0	0	NA	NA
66.807	0.472	3	8	pump	9	-0.0740740740740744	-3.77777777777778	control	control	9	grey	0	0	NA	NA
69.057	0.491	3	9	pump	9	0.925925925925926	-2.77777777777778	control	control	9	grey	0	0	NA	NA
73.307	1.25	4	1	pump	16	-7.07407407407407	-10.7777777777778	control	control	16	grey	0	0	NA	NA
76.157	0.477	4	2	pump	16	-6.07407407407407	-9.77777777777778	control	control	16	grey	0	0	NA	NA
78.059	0.465	4	3	pump	16	-5.07407407407407	-8.77777777777778	control	control	16	grey	0	0	NA	NA
79.792	0.475	4	4	pump	16	-4.07407407407407	-7.77777777777778	control	control	16	grey	0	0	NA	NA
82.191	0.459	4	5	pump	16	-3.07407407407407	-6.77777777777778	control	control	16	grey	0	0	NA	NA
84.624	0.541	4	6	pump	16	-2.07407407407407	-5.77777777777778	control	control	16	grey	0	0	NA	NA
86.574	0.425	4	7	pump	16	-1.07407407407407	-4.77777777777778	control	control	16	grey	0	0	NA	NA
88.873	0.368	4	8	pump	16	-0.0740740740740744	-3.77777777777778	control	control	16	grey	0	0	NA	NA
90.991	0.357	4	9	pump	16	0.925925925925926	-2.77777777777778	control	control	16	grey	0	0	NA	NA
92.691	0.446	4	10	pump	16	1.92592592592593	-1.77777777777778	control	control	16	grey	0	0	NA	NA
95.191	0.396	4	11	pump	16	2.92592592592593	-0.777777777777779	control	control	16	grey	0	0	NA	NA
96.941	0.468	4	12	pump	16	3.92592592592593	0.222222222222221	control	control	16	grey	0	0	NA	NA
98.669	0.477	4	13	pump	16	4.92592592592593	1.22222222222222	control	control	16	grey	0	0	NA	NA
100.224	0.421	4	14	pump	16	5.92592592592593	2.22222222222222	control	control	16	grey	0	0	NA	NA
102.524	0.48	4	15	pump	16	6.92592592592593	3.22222222222222	control	control	16	grey	0	0	NA	NA
104.508	0.482	4	16	pump	16	7.92592592592593	4.22222222222222	control	control	16	grey	0	0	NA	NA
111.958	0.528	5	1	pump	2	-7.07407407407407	-4.66666666666667	linear	explosion	2	red	0.1	0	NA	NA
114.091	0.577	5	2	pump	2	NA	NA	linear	explosion	2	red	0.2	0	116.024	2
123.258	0.58	6	1	pump	11	-7.07407407407407	-5.77777777777778	exponential	cashout	12	blue	0.01	1.54	NA	NA
125.691	0.396	6	2	pump	11	-6.07407407407407	-4.77777777777778	exponential	cashout	12	blue	0.0428709385014517	1.54	NA	NA
127.443	0.431	6	3	pump	11	-5.07407407407407	-3.77777777777778	exponential	cashout	12	blue	0.100451085663051	1.54	NA	NA
128.942	0.428	6	4	pump	11	-4.07407407407407	-2.77777777777778	exponential	cashout	12	blue	0.183791736799526	1.54	NA	NA
130.692	0.707	6	5	pump	11	-3.07407407407407	-1.77777777777778	exponential	cashout	12	blue	0.293654735772005	1.54	NA	NA
133.141	0.467	6	6	pump	11	-2.07407407407407	-0.777777777777778	exponential	cashout	12	blue	0.430643231586474	1.54	NA	NA
135.491	0.521	6	7	pump	11	-1.07407407407407	0.222222222222222	exponential	cashout	12	blue	0.595258881579143	1.54	NA	NA
137.808	0.395	6	8	pump	11	-0.0740740740740744	1.22222222222222	exponential	cashout	12	blue	0.787932424540747	1.54	NA	NA
139.524	0.598	6	9	pump	11	0.925925925925926	2.22222222222222	exponential	cashout	12	blue	1.00904206108857	1.54	NA	NA
142.158	0.889	6	10	pump	11	1.92592592592593	3.22222222222222	exponential	cashout	12	blue	1.25892541179417	1.54	NA	NA
144.824	0.473	6	11	pump	11	2.92592592592593	4.22222222222222	exponential	cashout	12	blue	1.53788775440427	1.54	NA	NA
146.741	0.49	6	12	cashout	11	NA	NA	exponential	cashout	12	blue	1.84620794974101	1.54	NA	NA
154.891	0.465	7	1	pump	11	-7.07407407407407	-4.66666666666667	linear	cashout	12	red	0.1	1.1	NA	NA
156.908	0.5	7	2	pump	11	-6.07407407407407	-3.66666666666667	linear	cashout	12	red	0.2	1.1	NA	NA
158.741	0.407	7	3	pump	11	-5.07407407407407	-2.66666666666667	linear	cashout	12	red	0.3	1.1	NA	NA
160.458	0.404	7	4	pump	11	-4.07407407407407	-1.66666666666667	linear	cashout	12	red	0.4	1.1	NA	NA
162.214	0.469	7	5	pump	11	-3.07407407407407	-0.666666666666667	linear	cashout	12	red	0.5	1.1	NA	NA
163.924	0.499	7	6	pump	11	-2.07407407407407	0.333333333333333	linear	cashout	12	red	0.6	1.1	NA	NA
166.458	0.45	7	7	pump	11	-1.07407407407407	1.33333333333333	linear	cashout	12	red	0.7	1.1	NA	NA
168.896	0.355	7	8	pump	11	-0.0740740740740744	2.33333333333333	linear	cashout	12	red	0.8	1.1	NA	NA
170.474	0.484	7	9	pump	11	0.925925925925926	3.33333333333333	linear	cashout	12	red	0.9	1.1	NA	NA
172.258	1.028	7	10	pump	11	1.92592592592593	4.33333333333333	linear	cashout	12	red	1	1.1	NA	NA
174.574	0.837	7	11	pump	11	2.92592592592593	5.33333333333333	linear	cashout	12	red	1.1	1.1	NA	NA
177.059	0.591	7	12	cashout	11	NA	NA	linear	cashout	12	red	1.2	1.1	NA	NA
190.024	0.621	8	1	pump	15	-7.07407407407407	-10.7777777777778	control	control	15	grey	0	0	NA	NA
191.841	0.507	8	2	pump	15	-6.07407407407407	-9.77777777777778	control	control	15	grey	0	0	NA	NA
193.991	0.315	8	3	pump	15	-5.07407407407407	-8.77777777777778	control	control	15	grey	0	0	NA	NA
195.774	0.478	8	4	pump	15	-4.07407407407407	-7.77777777777778	control	control	15	grey	0	0	NA	NA
197.841	0.339	8	5	pump	15	-3.07407407407407	-6.77777777777778	control	control	15	grey	0	0	NA	NA
199.724	0.316	8	6	pump	15	-2.07407407407407	-5.77777777777778	control	control	15	grey	0	0	NA	NA
201.391	0.304	8	7	pump	15	-1.07407407407407	-4.77777777777778	control	control	15	grey	0	0	NA	NA
203.424	0.334	8	8	pump	15	-0.0740740740740744	-3.77777777777778	control	control	15	grey	0	0	NA	NA
205.424	0.331	8	9	pump	15	0.925925925925926	-2.77777777777778	control	control	15	grey	0	0	NA	NA
207.641	0.263	8	10	pump	15	1.92592592592593	-1.77777777777778	control	control	15	grey	0	0	NA	NA
209.574	0.354	8	11	pump	15	2.92592592592593	-0.777777777777779	control	control	15	grey	0	0	NA	NA
211.291	0.408	8	12	pump	15	3.92592592592593	0.222222222222221	control	control	15	grey	0	0	NA	NA
213.358	0.454	8	13	pump	15	4.92592592592593	1.22222222222222	control	control	15	grey	0	0	NA	NA
215.424	0.33	8	14	pump	15	5.92592592592593	2.22222222222222	control	control	15	grey	0	0	NA	NA
217.008	0.387	8	15	pump	15	6.92592592592593	3.22222222222222	control	control	15	grey	0	0	NA	NA
221.108	0.747	9	1	pump	7	-7.07407407407407	-5.77777777777778	exponential	explosion	7	blue	0.01	0	NA	NA
223.458	0.374	9	2	pump	7	-6.07407407407407	-4.77777777777778	exponential	explosion	7	blue	0.0428709385014517	0	NA	NA
224.91	0.411	9	3	pump	7	-5.07407407407407	-3.77777777777778	exponential	explosion	7	blue	0.100451085663051	0	NA	NA
226.376	0.393	9	4	pump	7	-4.07407407407407	-2.77777777777778	exponential	explosion	7	blue	0.183791736799526	0	NA	NA
227.926	0.364	9	5	pump	7	-3.07407407407407	-1.77777777777778	exponential	explosion	7	blue	0.293654735772005	0	NA	NA
229.892	0.417	9	6	pump	7	-2.07407407407407	-0.777777777777778	exponential	explosion	7	blue	0.430643231586474	0	NA	NA
231.558	0.355	9	7	pump	7	NA	NA	exponential	explosion	7	blue	0.595258881579143	0	233.874	2
240.908	0.636	10	1	pump	12	-7.07407407407407	-10.7777777777778	control	control	12	grey	0	0	NA	NA
242.825	0.31	10	2	pump	12	-6.07407407407407	-9.77777777777778	control	control	12	grey	0	0	NA	NA
244.691	0.368	10	3	pump	12	-5.07407407407407	-8.77777777777778	control	control	12	grey	0	0	NA	NA
246.325	0.354	10	4	pump	12	-4.07407407407407	-7.77777777777778	control	control	12	grey	0	0	NA	NA
248.225	0.292	10	5	pump	12	-3.07407407407407	-6.77777777777778	control	control	12	grey	0	0	NA	NA
250.125	0.322	10	6	pump	12	-2.07407407407407	-5.77777777777778	control	control	12	grey	0	0	NA	NA
252.141	0.28	10	7	pump	12	-1.07407407407407	-4.77777777777778	control	control	12	grey	0	0	NA	NA
253.508	0.324	10	8	pump	12	-0.0740740740740744	-3.77777777777778	control	control	12	grey	0	0	NA	NA
255.017	0.307	10	9	pump	12	0.925925925925926	-2.77777777777778	control	control	12	grey	0	0	NA	NA
256.483	0.352	10	10	pump	12	1.92592592592593	-1.77777777777778	control	control	12	grey	0	0	NA	NA
258.741	0.316	10	11	pump	12	2.92592592592593	-0.777777777777779	control	control	12	grey	0	0	NA	NA
260.708	0.318	10	12	pump	12	3.92592592592593	0.222222222222221	control	control	12	grey	0	0	NA	NA
270.341	0.388	11	1	pump	7	-7.07407407407407	-5.77777777777778	exponential	explosion	7	blue	0.01	0	NA	NA
272.375	0.419	11	2	pump	7	-6.07407407407407	-4.77777777777778	exponential	explosion	7	blue	0.0428709385014517	0	NA	NA
274.527	0.508	11	3	pump	7	-5.07407407407407	-3.77777777777778	exponential	explosion	7	blue	0.100451085663051	0	NA	NA
277.076	0.403	11	4	pump	7	-4.07407407407407	-2.77777777777778	exponential	explosion	7	blue	0.183791736799526	0	NA	NA
279.492	0.29	11	5	pump	7	-3.07407407407407	-1.77777777777778	exponential	explosion	7	blue	0.293654735772005	0	NA	NA
281.608	0.297	11	6	pump	7	-2.07407407407407	-0.777777777777778	exponential	explosion	7	blue	0.430643231586474	0	NA	NA
283.341	0.293	11	7	pump	7	NA	NA	exponential	explosion	7	blue	0.595258881579143	0	285.108	2
293.191	0.517	12	1	pump	6	-7.07407407407407	-4.66666666666667	linear	explosion	6	red	0.1	0	NA	NA
294.858	0.308	12	2	pump	6	-6.07407407407407	-3.66666666666667	linear	explosion	6	red	0.2	0	NA	NA
296.958	0.305	12	3	pump	6	-5.07407407407407	-2.66666666666667	linear	explosion	6	red	0.3	0	NA	NA
298.758	0.319	12	4	pump	6	-4.07407407407407	-1.66666666666667	linear	explosion	6	red	0.4	0	NA	NA
300.958	0.319	12	5	pump	6	-3.07407407407407	-0.666666666666667	linear	explosion	6	red	0.5	0	NA	NA
302.508	0.323	12	6	pump	6	NA	NA	linear	explosion	6	red	0.6	0	304.708	2
310.308	0.404	13	1	pump	7	-7.07407407407407	-4.66666666666667	linear	explosion	7	red	0.1	0	NA	NA
312.341	0.278	13	2	pump	7	-6.07407407407407	-3.66666666666667	linear	explosion	7	red	0.2	0	NA	NA
314.441	0.302	13	3	pump	7	-5.07407407407407	-2.66666666666667	linear	explosion	7	red	0.3	0	NA	NA
316.158	0.296	13	4	pump	7	-4.07407407407407	-1.66666666666667	linear	explosion	7	red	0.4	0	NA	NA
318.025	0.31	13	5	pump	7	-3.07407407407407	-0.666666666666667	linear	explosion	7	red	0.5	0	NA	NA
319.525	0.282	13	6	pump	7	-2.07407407407407	0.333333333333333	linear	explosion	7	red	0.6	0	NA	NA
321.691	0.449	13	7	pump	7	NA	NA	linear	explosion	7	red	0.7	0	323.591	2
328.525	0.634	14	1	pump	9	-7.07407407407407	-5.77777777777778	exponential	explosion	9	blue	0.01	0	NA	NA
330.525	0.339	14	2	pump	9	-6.07407407407407	-4.77777777777778	exponential	explosion	9	blue	0.0428709385014517	0	NA	NA
332.891	0.371	14	3	pump	9	-5.07407407407407	-3.77777777777778	exponential	explosion	9	blue	0.100451085663051	0	NA	NA
334.508	0.277	14	4	pump	9	-4.07407407407407	-2.77777777777778	exponential	explosion	9	blue	0.183791736799526	0	NA	NA
336.691	0.437	14	5	pump	9	-3.07407407407407	-1.77777777777778	exponential	explosion	9	blue	0.293654735772005	0	NA	NA
338.208	0.328	14	6	pump	9	-2.07407407407407	-0.777777777777778	exponential	explosion	9	blue	0.430643231586474	0	NA	NA
339.758	0.349	14	7	pump	9	-1.07407407407407	0.222222222222222	exponential	explosion	9	blue	0.595258881579143	0	NA	NA
341.391	0.303	14	8	pump	9	-0.0740740740740744	1.22222222222222	exponential	explosion	9	blue	0.787932424540747	0	NA	NA
342.791	0.437	14	9	pump	9	NA	NA	exponential	explosion	9	blue	1.00904206108857	0	344.691	2
353.533	0.483	15	1	pump	16	-7.07407407407407	-10.7777777777778	control	control	16	grey	0	0	NA	NA
355.158	0.327	15	2	pump	16	-6.07407407407407	-9.77777777777778	control	control	16	grey	0	0	NA	NA
356.675	0.282	15	3	pump	16	-5.07407407407407	-8.77777777777778	control	control	16	grey	0	0	NA	NA
358.541	0.312	15	4	pump	16	-4.07407407407407	-7.77777777777778	control	control	16	grey	0	0	NA	NA
360.408	0.254	15	5	pump	16	-3.07407407407407	-6.77777777777778	control	control	16	grey	0	0	NA	NA
362.641	0.322	15	6	pump	16	-2.07407407407407	-5.77777777777778	control	control	16	grey	0	0	NA	NA
364.141	0.184	15	7	pump	16	-1.07407407407407	-4.77777777777778	control	control	16	grey	0	0	NA	NA
366.008	0.297	15	8	pump	16	-0.0740740740740744	-3.77777777777778	control	control	16	grey	0	0	NA	NA
367.775	0.083	15	9	pump	16	0.925925925925926	-2.77777777777778	control	control	16	grey	0	0	NA	NA
369.791	0.542	15	10	pump	16	1.92592592592593	-1.77777777777778	control	control	16	grey	0	0	NA	NA
371.441	0.612	15	11	pump	16	2.92592592592593	-0.777777777777779	control	control	16	grey	0	0	NA	NA
373.477	0.375	15	12	pump	16	3.92592592592593	0.222222222222221	control	control	16	grey	0	0	NA	NA
375.159	0.491	15	13	pump	16	4.92592592592593	1.22222222222222	control	control	16	grey	0	0	NA	NA
377.225	0.326	15	14	pump	16	5.92592592592593	2.22222222222222	control	control	16	grey	0	0	NA	NA
379.375	0.41	15	15	pump	16	6.92592592592593	3.22222222222222	control	control	16	grey	0	0	NA	NA
381.441	0.367	15	16	pump	16	7.92592592592593	4.22222222222222	control	control	16	grey	0	0	NA	NA
389.575	0.46	16	1	pump	2	-7.07407407407407	-5.77777777777778	exponential	explosion	2	blue	0.01	0	NA	NA
391.692	0.34	16	2	pump	2	NA	NA	exponential	explosion	2	blue	0.0428709385014517	0	393.508	2
400.208	0.355	17	1	pump	9	-7.07407407407407	-10.7777777777778	control	control	9	grey	0	0	NA	NA
402.525	2.208	17	2	pump	9	-6.07407407407407	-9.77777777777778	control	control	9	grey	0	0	NA	NA
405.925	1.046	17	3	pump	9	-5.07407407407407	-8.77777777777778	control	control	9	grey	0	0	NA	NA
408.092	0.983	17	4	pump	9	-4.07407407407407	-7.77777777777778	control	control	9	grey	0	0	NA	NA
410.425	0.63	17	5	pump	9	-3.07407407407407	-6.77777777777778	control	control	9	grey	0	0	NA	NA
412.742	0.423	17	6	pump	9	-2.07407407407407	-5.77777777777778	control	control	9	grey	0	0	NA	NA
414.525	0.399	17	7	pump	9	-1.07407407407407	-4.77777777777778	control	control	9	grey	0	0	NA	NA
416.708	0.389	17	8	pump	9	-0.0740740740740744	-3.77777777777778	control	control	9	grey	0	0	NA	NA
418.342	0.488	17	9	pump	9	0.925925925925926	-2.77777777777778	control	control	9	grey	0	0	NA	NA
421.794	0.451	18	1	pump	5	-7.07407407407407	-4.66666666666667	linear	cashout	12	red	0.1	0.5	NA	NA
423.793	0.276	18	2	pump	5	-6.07407407407407	-3.66666666666667	linear	cashout	12	red	0.2	0.5	NA	NA
425.676	0.299	18	3	pump	5	-5.07407407407407	-2.66666666666667	linear	cashout	12	red	0.3	0.5	NA	NA
427.125	0.384	18	4	pump	5	-4.07407407407407	-1.66666666666667	linear	cashout	12	red	0.4	0.5	NA	NA
428.742	0.443	18	5	pump	5	-3.07407407407407	-0.666666666666667	linear	cashout	12	red	0.5	0.5	NA	NA
431.092	0.857	18	6	cashout	5	NA	NA	linear	cashout	12	red	0.6	0.5	NA	NA
440.975	0.51	19	1	pump	8	-7.07407407407407	-4.66666666666667	linear	cashout	16	red	0.1	0.8	NA	NA
442.625	0.746	19	2	pump	8	-6.07407407407407	-3.66666666666667	linear	cashout	16	red	0.2	0.8	NA	NA
445.158	0.616	19	3	pump	8	-5.07407407407407	-2.66666666666667	linear	cashout	16	red	0.3	0.8	NA	NA
447.658	0.676	19	4	pump	8	-4.07407407407407	-1.66666666666667	linear	cashout	16	red	0.4	0.8	NA	NA
449.818	0.523	19	5	pump	8	-3.07407407407407	-0.666666666666667	linear	cashout	16	red	0.5	0.8	NA	NA
452.042	0.438	19	6	pump	8	-2.07407407407407	0.333333333333333	linear	cashout	16	red	0.6	0.8	NA	NA
454.025	0.37	19	7	pump	8	-1.07407407407407	1.33333333333333	linear	cashout	16	red	0.7	0.8	NA	NA
456.342	0.43	19	8	pump	8	-0.0740740740740744	2.33333333333333	linear	cashout	16	red	0.8	0.8	NA	NA
458.325	0.779	19	9	cashout	8	NA	NA	linear	cashout	16	red	0.9	0.8	NA	NA
465.025	0.626	20	1	pump	8	-7.07407407407407	-5.77777777777778	exponential	cashout	16	blue	0.01	0.79	NA	NA
467.608	0.6	20	2	pump	8	-6.07407407407407	-4.77777777777778	exponential	cashout	16	blue	0.0428709385014517	0.79	NA	NA
469.358	0.536	20	3	pump	8	-5.07407407407407	-3.77777777777778	exponential	cashout	16	blue	0.100451085663051	0.79	NA	NA
471.91	0.387	20	4	pump	8	-4.07407407407407	-2.77777777777778	exponential	cashout	16	blue	0.183791736799526	0.79	NA	NA
473.693	0.412	20	5	pump	8	-3.07407407407407	-1.77777777777778	exponential	cashout	16	blue	0.293654735772005	0.79	NA	NA
475.459	0.567	20	6	pump	8	-2.07407407407407	-0.777777777777778	exponential	cashout	16	blue	0.430643231586474	0.79	NA	NA
477.675	0.509	20	7	pump	8	-1.07407407407407	0.222222222222222	exponential	cashout	16	blue	0.595258881579143	0.79	NA	NA
480.208	0.926	20	8	pump	8	-0.0740740740740744	1.22222222222222	exponential	cashout	16	blue	0.787932424540747	0.79	NA	NA
482.975	0.481	20	9	cashout	8	NA	NA	exponential	cashout	16	blue	1.00904206108857	0.79	NA	NA
493.042	1.022	21	1	pump	4	-7.07407407407407	-10.7777777777778	control	control	4	grey	0	0	NA	NA
495.842	0.535	21	2	pump	4	-6.07407407407407	-9.77777777777778	control	control	4	grey	0	0	NA	NA
498.075	0.482	21	3	pump	4	-5.07407407407407	-8.77777777777778	control	control	4	grey	0	0	NA	NA
499.842	0.514	21	4	pump	4	-4.07407407407407	-7.77777777777778	control	control	4	grey	0	0	NA	NA
504.842	0.73	22	1	pump	11	-7.07407407407407	-10.7777777777778	control	control	11	grey	0	0	NA	NA
507.392	0.543	22	2	pump	11	-6.07407407407407	-9.77777777777778	control	control	11	grey	0	0	NA	NA
509.964	0.519	22	3	pump	11	-5.07407407407407	-8.77777777777778	control	control	11	grey	0	0	NA	NA
512.258	0.515	22	4	pump	11	-4.07407407407407	-7.77777777777778	control	control	11	grey	0	0	NA	NA
514.292	0.346	22	5	pump	11	-3.07407407407407	-6.77777777777778	control	control	11	grey	0	0	NA	NA
515.758	0.522	22	6	pump	11	-2.07407407407407	-5.77777777777778	control	control	11	grey	0	0	NA	NA
517.558	0.497	22	7	pump	11	-1.07407407407407	-4.77777777777778	control	control	11	grey	0	0	NA	NA
519.742	0.348	22	8	pump	11	-0.0740740740740744	-3.77777777777778	control	control	11	grey	0	0	NA	NA
521.627	0.397	22	9	pump	11	0.925925925925926	-2.77777777777778	control	control	11	grey	0	0	NA	NA
523.409	0.36	22	10	pump	11	1.92592592592593	-1.77777777777778	control	control	11	grey	0	0	NA	NA
524.976	0.387	22	11	pump	11	2.92592592592593	-0.777777777777779	control	control	11	grey	0	0	NA	NA
529.742	0.601	23	1	pump	1	NA	NA	exponential	explosion	1	blue	0.01	0	532.058	2
541.592	0.476	24	1	pump	6	-7.07407407407407	-4.66666666666667	linear	cashout	11	red	0.1	0.6	NA	NA
543.192	0.343	24	2	pump	6	-6.07407407407407	-3.66666666666667	linear	cashout	11	red	0.2	0.6	NA	NA
545.509	0.33	24	3	pump	6	-5.07407407407407	-2.66666666666667	linear	cashout	11	red	0.3	0.6	NA	NA
547.775	0.325	24	4	pump	6	-4.07407407407407	-1.66666666666667	linear	cashout	11	red	0.4	0.6	NA	NA
549.875	0.287	24	5	pump	6	-3.07407407407407	-0.666666666666667	linear	cashout	11	red	0.5	0.6	NA	NA
551.592	0.326	24	6	pump	6	-2.07407407407407	0.333333333333333	linear	cashout	11	red	0.6	0.6	NA	NA
553.192	0.381	24	7	cashout	6	NA	NA	linear	cashout	11	red	0.7	0.6	NA	NA
558.609	0.77	25	1	pump	1	NA	NA	linear	explosion	1	red	0.1	0	561.242	2
564.825	0.497	26	1	pump	9	-7.07407407407407	-5.77777777777778	exponential	explosion	9	blue	0.01	0	NA	NA
566.509	0.324	26	2	pump	9	-6.07407407407407	-4.77777777777778	exponential	explosion	9	blue	0.0428709385014517	0	NA	NA
568.428	0.317	26	3	pump	9	-5.07407407407407	-3.77777777777778	exponential	explosion	9	blue	0.100451085663051	0	NA	NA
569.994	0.341	26	4	pump	9	-4.07407407407407	-2.77777777777778	exponential	explosion	9	blue	0.183791736799526	0	NA	NA
571.676	0.376	26	5	pump	9	-3.07407407407407	-1.77777777777778	exponential	explosion	9	blue	0.293654735772005	0	NA	NA
573.842	0.286	26	6	pump	9	-2.07407407407407	-0.777777777777778	exponential	explosion	9	blue	0.430643231586474	0	NA	NA
576.125	0.299	26	7	pump	9	-1.07407407407407	0.222222222222222	exponential	explosion	9	blue	0.595258881579143	0	NA	NA
577.692	0.314	26	8	pump	9	-0.0740740740740744	1.22222222222222	exponential	explosion	9	blue	0.787932424540747	0	NA	NA
579.325	0.395	26	9	pump	9	NA	NA	exponential	explosion	9	blue	1.00904206108857	0	581.109	2
592.992	0.492	27	1	pump	14	-7.07407407407407	-10.7777777777778	control	control	14	grey	0	0	NA	NA
595.475	0.482	27	2	pump	14	-6.07407407407407	-9.77777777777778	control	control	14	grey	0	0	NA	NA
597.992	0.476	27	3	pump	14	-5.07407407407407	-8.77777777777778	control	control	14	grey	0	0	NA	NA
600.134	0.419	27	4	pump	14	-4.07407407407407	-7.77777777777778	control	control	14	grey	0	0	NA	NA
601.766	0.498	27	5	pump	14	-3.07407407407407	-6.77777777777778	control	control	14	grey	0	0	NA	NA
603.459	0.482	27	6	pump	14	-2.07407407407407	-5.77777777777778	control	control	14	grey	0	0	NA	NA
605.042	0.477	27	7	pump	14	-1.07407407407407	-4.77777777777778	control	control	14	grey	0	0	NA	NA
606.892	0.703	27	8	pump	14	-0.0740740740740744	-3.77777777777778	control	control	14	grey	0	0	NA	NA
609.592	0.888	27	9	pump	14	0.925925925925926	-2.77777777777778	control	control	14	grey	0	0	NA	NA
612.175	0.393	27	10	pump	14	1.92592592592593	-1.77777777777778	control	control	14	grey	0	0	NA	NA
613.709	0.417	27	11	pump	14	2.92592592592593	-0.777777777777779	control	control	14	grey	0	0	NA	NA
615.842	0.444	27	12	pump	14	3.92592592592593	0.222222222222221	control	control	14	grey	0	0	NA	NA
617.625	0.451	27	13	pump	14	4.92592592592593	1.22222222222222	control	control	14	grey	0	0	NA	NA
619.444	0.401	27	14	pump	14	5.92592592592593	2.22222222222222	control	control	14	grey	0	0	NA	NA
