onset	duration	balloon_number	balloon_idx	response	pumps	pumps_demean_all	pumps_demean_type	balloon_type	balloon_outcome	balloon_maxpumps	balloon_colour	balloon_payoff_cumulative	balloon_payoff_total	onset_explosion	duration_explosion
4.079	1.634	1	1	pump	2	-5.68965517241379	-6.9	exponential	explosion	2	red	0.01	0	NA	NA
7.246	0.529	1	2	pump	2	NA	NA	exponential	explosion	2	red	0.0428709385014517	0	9.257	2
13.412	0.623	2	1	pump	8	-5.68965517241379	-5.22222222222222	linear	cashout	11	blue	0.1	0.8	NA	NA
15.362	0.449	2	2	pump	8	-4.68965517241379	-4.22222222222222	linear	cashout	11	blue	0.2	0.8	NA	NA
17.662	0.825	2	3	pump	8	-3.68965517241379	-3.22222222222222	linear	cashout	11	blue	0.3	0.8	NA	NA
19.896	0.523	2	4	pump	8	-2.68965517241379	-2.22222222222222	linear	cashout	11	blue	0.4	0.8	NA	NA
21.846	0.794	2	5	pump	8	-1.68965517241379	-1.22222222222222	linear	cashout	11	blue	0.5	0.8	NA	NA
23.819	0.592	2	6	pump	8	-0.689655172413793	-0.222222222222222	linear	cashout	11	blue	0.6	0.8	NA	NA
26.096	0.829	2	7	pump	8	0.310344827586207	0.777777777777778	linear	cashout	11	blue	0.7	0.8	NA	NA
28.879	0.888	2	8	pump	8	1.31034482758621	1.77777777777778	linear	cashout	11	blue	0.8	0.8	NA	NA
31.729	0.687	2	9	cashout	8	NA	NA	linear	cashout	11	blue	0.9	0.8	NA	NA
44.579	1.044	3	1	pump	7	-5.68965517241379	-4.9	control	control	7	grey	0	0	NA	NA
47.362	0.431	3	2	pump	7	-4.68965517241379	-3.9	control	control	7	grey	0	0	NA	NA
48.962	0.396	3	3	pump	7	-3.68965517241379	-2.9	control	control	7	grey	0	0	NA	NA
50.429	0.336	3	4	pump	7	-2.68965517241379	-1.9	control	control	7	grey	0	0	NA	NA
52.196	0.379	3	5	pump	7	-1.68965517241379	-0.9	control	control	7	grey	0	0	NA	NA
53.896	0.432	3	6	pump	7	-0.689655172413793	0.0999999999999996	control	control	7	grey	0	0	NA	NA
55.446	0.47	3	7	pump	7	0.310344827586207	1.1	control	control	7	grey	0	0	NA	NA
61.912	0.785	4	1	pump	6	-5.68965517241379	-5.22222222222222	linear	explosion	6	blue	0.1	0	NA	NA
64.279	0.506	4	2	pump	6	-4.68965517241379	-4.22222222222222	linear	explosion	6	blue	0.2	0	NA	NA
65.929	0.585	4	3	pump	6	-3.68965517241379	-3.22222222222222	linear	explosion	6	blue	0.3	0	NA	NA
68.129	0.526	4	4	pump	6	-2.68965517241379	-2.22222222222222	linear	explosion	6	blue	0.4	0	NA	NA
70.546	0.521	4	5	pump	6	-1.68965517241379	-1.22222222222222	linear	explosion	6	blue	0.5	0	NA	NA
72.912	0.501	4	6	pump	6	NA	NA	linear	explosion	6	blue	0.6	0	75.196	2
80.546	1.073	5	1	pump	7	-5.68965517241379	-6.9	exponential	cashout	8	red	0.01	0.6	NA	NA
83.012	0.409	5	2	pump	7	-4.68965517241379	-5.9	exponential	cashout	8	red	0.0428709385014517	0.6	NA	NA
84.796	0.403	5	3	pump	7	-3.68965517241379	-4.9	exponential	cashout	8	red	0.100451085663051	0.6	NA	NA
86.465	0.583	5	4	pump	7	-2.68965517241379	-3.9	exponential	cashout	8	red	0.183791736799526	0.6	NA	NA
88.447	0.563	5	5	pump	7	-1.68965517241379	-2.9	exponential	cashout	8	red	0.293654735772005	0.6	NA	NA
90.763	0.871	5	6	pump	7	-0.689655172413793	-1.9	exponential	cashout	8	red	0.430643231586474	0.6	NA	NA
92.746	0.998	5	7	pump	7	0.310344827586207	-0.9	exponential	cashout	8	red	0.595258881579143	0.6	NA	NA
95.412	1.649	5	8	cashout	7	NA	NA	exponential	cashout	8	red	0.787932424540747	0.6	NA	NA
102.646	0.7	6	1	pump	4	-5.68965517241379	-4.9	control	control	4	grey	0	0	NA	NA
104.662	0.39	6	2	pump	4	-4.68965517241379	-3.9	control	control	4	grey	0	0	NA	NA
106.479	0.345	6	3	pump	4	-3.68965517241379	-2.9	control	control	4	grey	0	0	NA	NA
108.212	0.344	6	4	pump	4	-2.68965517241379	-1.9	control	control	4	grey	0	0	NA	NA
113.879	0.709	7	1	pump	11	-5.68965517241379	-4.9	control	control	11	grey	0	0	NA	NA
115.996	0.359	7	2	pump	11	-4.68965517241379	-3.9	control	control	11	grey	0	0	NA	NA
117.929	0.543	7	3	pump	11	-3.68965517241379	-2.9	control	control	11	grey	0	0	NA	NA
119.896	0.473	7	4	pump	11	-2.68965517241379	-1.9	control	control	11	grey	0	0	NA	NA
121.929	0.515	7	5	pump	11	-1.68965517241379	-0.9	control	control	11	grey	0	0	NA	NA
124.029	0.56	7	6	pump	11	-0.689655172413793	0.0999999999999996	control	control	11	grey	0	0	NA	NA
125.846	0.715	7	7	pump	11	0.310344827586207	1.1	control	control	11	grey	0	0	NA	NA
128.012	0.605	7	8	pump	11	1.31034482758621	2.1	control	control	11	grey	0	0	NA	NA
129.896	0.547	7	9	pump	11	2.31034482758621	3.1	control	control	11	grey	0	0	NA	NA
132.066	0.476	7	10	pump	11	3.31034482758621	4.1	control	control	11	grey	0	0	NA	NA
133.932	0.534	7	11	pump	11	4.31034482758621	5.1	control	control	11	grey	0	0	NA	NA
141.38	0.854	8	1	pump	8	-5.68965517241379	-6.9	exponential	cashout	12	red	0.01	0.79	NA	NA
143.529	1.052	8	2	pump	8	-4.68965517241379	-5.9	exponential	cashout	12	red	0.0428709385014517	0.79	NA	NA
145.813	1.061	8	3	pump	8	-3.68965517241379	-4.9	exponential	cashout	12	red	0.100451085663051	0.79	NA	NA
147.944	1.273	8	4	pump	8	-2.68965517241379	-3.9	exponential	cashout	12	red	0.183791736799526	0.79	NA	NA
150.913	0.971	8	5	pump	8	-1.68965517241379	-2.9	exponential	cashout	12	red	0.293654735772005	0.79	NA	NA
153.046	0.807	8	6	pump	8	-0.689655172413793	-1.9	exponential	cashout	12	red	0.430643231586474	0.79	NA	NA
155.513	0.912	8	7	pump	8	0.310344827586207	-0.9	exponential	cashout	12	red	0.595258881579143	0.79	NA	NA
158.463	1.003	8	8	pump	8	1.31034482758621	0.0999999999999996	exponential	cashout	12	red	0.787932424540747	0.79	NA	NA
160.729	0.75	8	9	cashout	8	NA	NA	exponential	cashout	12	red	1.00904206108857	0.79	NA	NA
168.379	0.549	9	1	pump	8	-5.68965517241379	-5.22222222222222	linear	explosion	8	blue	0.1	0	NA	NA
169.996	0.591	9	2	pump	8	-4.68965517241379	-4.22222222222222	linear	explosion	8	blue	0.2	0	NA	NA
172.546	0.456	9	3	pump	8	-3.68965517241379	-3.22222222222222	linear	explosion	8	blue	0.3	0	NA	NA
174.513	0.52	9	4	pump	8	-2.68965517241379	-2.22222222222222	linear	explosion	8	blue	0.4	0	NA	NA
176.713	0.537	9	5	pump	8	-1.68965517241379	-1.22222222222222	linear	explosion	8	blue	0.5	0	NA	NA
178.946	0.544	9	6	pump	8	-0.689655172413793	-0.222222222222222	linear	explosion	8	blue	0.6	0	NA	NA
180.613	0.75	9	7	pump	8	0.310344827586207	0.777777777777778	linear	explosion	8	blue	0.7	0	NA	NA
182.513	1.148	9	8	pump	8	NA	NA	linear	explosion	8	blue	0.8	0	184.979	2
190.646	0.728	10	1	pump	9	-5.68965517241379	-6.9	exponential	cashout	14	red	0.01	1.01	NA	NA
193.179	0.45	10	2	pump	9	-4.68965517241379	-5.9	exponential	cashout	14	red	0.0428709385014517	1.01	NA	NA
195.596	0.957	10	3	pump	9	-3.68965517241379	-4.9	exponential	cashout	14	red	0.100451085663051	1.01	NA	NA
198.346	0.71	10	4	pump	9	-2.68965517241379	-3.9	exponential	cashout	14	red	0.183791736799526	1.01	NA	NA
200.529	0.571	10	5	pump	9	-1.68965517241379	-2.9	exponential	cashout	14	red	0.293654735772005	1.01	NA	NA
202.913	0.505	10	6	pump	9	-0.689655172413793	-1.9	exponential	cashout	14	red	0.430643231586474	1.01	NA	NA
204.646	0.777	10	7	pump	9	0.310344827586207	-0.9	exponential	cashout	14	red	0.595258881579143	1.01	NA	NA
207.374	0.963	10	8	pump	9	1.31034482758621	0.0999999999999996	exponential	cashout	14	red	0.787932424540747	1.01	NA	NA
209.946	0.933	10	9	pump	9	2.31034482758621	1.1	exponential	cashout	14	red	1.00904206108857	1.01	NA	NA
212.513	0.773	10	10	cashout	9	NA	NA	exponential	cashout	14	red	1.25892541179417	1.01	NA	NA
220.013	0.935	11	1	pump	7	-5.68965517241379	-5.22222222222222	linear	cashout	14	blue	0.1	0.7	NA	NA
222.579	0.522	11	2	pump	7	-4.68965517241379	-4.22222222222222	linear	cashout	14	blue	0.2	0.7	NA	NA
224.785	0.477	11	3	pump	7	-3.68965517241379	-3.22222222222222	linear	cashout	14	blue	0.3	0.7	NA	NA
227.229	0.464	11	4	pump	7	-2.68965517241379	-2.22222222222222	linear	cashout	14	blue	0.4	0.7	NA	NA
228.963	0.589	11	5	pump	7	-1.68965517241379	-1.22222222222222	linear	cashout	14	blue	0.5	0.7	NA	NA
231.379	0.663	11	6	pump	7	-0.689655172413793	-0.222222222222222	linear	cashout	14	blue	0.6	0.7	NA	NA
233.163	0.909	11	7	pump	7	0.310344827586207	0.777777777777778	linear	cashout	14	blue	0.7	0.7	NA	NA
235.448	1.531	11	8	cashout	7	NA	NA	linear	cashout	14	blue	0.8	0.7	NA	NA
242.729	0.549	12	1	pump	2	-5.68965517241379	-4.9	control	control	2	grey	0	0	NA	NA
244.413	0.291	12	2	pump	2	-4.68965517241379	-3.9	control	control	2	grey	0	0	NA	NA
248.129	0.852	13	1	pump	3	-5.68965517241379	-5.22222222222222	linear	explosion	3	blue	0.1	0	NA	NA
250.743	0.54	13	2	pump	3	-4.68965517241379	-4.22222222222222	linear	explosion	3	blue	0.2	0	NA	NA
252.846	0.526	13	3	pump	3	NA	NA	linear	explosion	3	blue	0.3	0	255.246	1.99999999999997
262.196	0.876	14	1	pump	4	-5.68965517241379	-4.9	control	control	4	grey	0	0	NA	NA
264.296	0.484	14	2	pump	4	-4.68965517241379	-3.9	control	control	4	grey	0	0	NA	NA
266.187	0.536	14	3	pump	4	-3.68965517241379	-2.9	control	control	4	grey	0	0	NA	NA
267.946	0.463	14	4	pump	4	-2.68965517241379	-1.9	control	control	4	grey	0	0	NA	NA
272.496	0.917	15	1	pump	10	-5.68965517241379	-6.9	exponential	cashout	12	red	0.01	1.26	NA	NA
274.763	0.662	15	2	pump	10	-4.68965517241379	-5.9	exponential	cashout	12	red	0.0428709385014517	1.26	NA	NA
276.746	0.616	15	3	pump	10	-3.68965517241379	-4.9	exponential	cashout	12	red	0.100451085663051	1.26	NA	NA
278.679	0.676	15	4	pump	10	-2.68965517241379	-3.9	exponential	cashout	12	red	0.183791736799526	1.26	NA	NA
280.563	0.864	15	5	pump	10	-1.68965517241379	-2.9	exponential	cashout	12	red	0.293654735772005	1.26	NA	NA
282.629	0.979	15	6	pump	10	-0.689655172413793	-1.9	exponential	cashout	12	red	0.430643231586474	1.26	NA	NA
285.414	0.839	15	7	pump	10	0.310344827586207	-0.9	exponential	cashout	12	red	0.595258881579143	1.26	NA	NA
288.263	0.538	15	8	pump	10	1.31034482758621	0.0999999999999996	exponential	cashout	12	red	0.787932424540747	1.26	NA	NA
290.763	0.727	15	9	pump	10	2.31034482758621	1.1	exponential	cashout	12	red	1.00904206108857	1.26	NA	NA
292.746	1.284	15	10	pump	10	3.31034482758621	2.1	exponential	cashout	12	red	1.25892541179417	1.26	NA	NA
295.246	1.048	15	11	cashout	10	NA	NA	exponential	cashout	12	red	1.53788775440427	1.26	NA	NA
302.496	1.18	16	1	pump	11	-5.68965517241379	-6.9	exponential	cashout	16	red	0.01	1.54	NA	NA
305.279	0.439	16	2	pump	11	-4.68965517241379	-5.9	exponential	cashout	16	red	0.0428709385014517	1.54	NA	NA
307.313	0.655	16	3	pump	11	-3.68965517241379	-4.9	exponential	cashout	16	red	0.100451085663051	1.54	NA	NA
309.429	0.814	16	4	pump	11	-2.68965517241379	-3.9	exponential	cashout	16	red	0.183791736799526	1.54	NA	NA
312.279	0.678	16	5	pump	11	-1.68965517241379	-2.9	exponential	cashout	16	red	0.293654735772005	1.54	NA	NA
314.829	0.742	16	6	pump	11	-0.689655172413793	-1.9	exponential	cashout	16	red	0.430643231586474	1.54	NA	NA
317.179	0.886	16	7	pump	11	0.310344827586207	-0.9	exponential	cashout	16	red	0.595258881579143	1.54	NA	NA
320.13	0.85	16	8	pump	11	1.31034482758621	0.0999999999999996	exponential	cashout	16	red	0.787932424540747	1.54	NA	NA
322.346	0.776	16	9	pump	11	2.31034482758621	1.1	exponential	cashout	16	red	1.00904206108857	1.54	NA	NA
324.996	0.871	16	10	pump	11	3.31034482758621	2.1	exponential	cashout	16	red	1.25892541179417	1.54	NA	NA
327.463	1.207	16	11	pump	11	4.31034482758621	3.1	exponential	cashout	16	red	1.53788775440427	1.54	NA	NA
330.013	0.598	16	12	cashout	11	NA	NA	exponential	cashout	16	red	1.84620794974101	1.54	NA	NA
337.93	0.616	17	1	pump	1	-5.68965517241379	-4.9	control	control	1	grey	0	0	NA	NA
345.08	0.73	18	1	pump	4	-5.68965517241379	-5.22222222222222	linear	explosion	4	blue	0.1	0	NA	NA
347.63	0.682	18	2	pump	4	-4.68965517241379	-4.22222222222222	linear	explosion	4	blue	0.2	0	NA	NA
350.113	0.62	18	3	pump	4	-3.68965517241379	-3.22222222222222	linear	explosion	4	blue	0.3	0	NA	NA
352.58	0.58	18	4	pump	4	NA	NA	linear	explosion	4	blue	0.4	0	355.213	2
358.746	0.933	19	1	pump	9	-5.68965517241379	-6.9	exponential	explosion	9	red	0.01	0	NA	NA
361.13	0.828	19	2	pump	9	-4.68965517241379	-5.9	exponential	explosion	9	red	0.0428709385014517	0	NA	NA
363.946	0.581	19	3	pump	9	-3.68965517241379	-4.9	exponential	explosion	9	red	0.100451085663051	0	NA	NA
366.563	0.419	19	4	pump	9	-2.68965517241379	-3.9	exponential	explosion	9	red	0.183791736799526	0	NA	NA
368.286	0.797	19	5	pump	9	-1.68965517241379	-2.9	exponential	explosion	9	red	0.293654735772005	0	NA	NA
371.146	0.563	19	6	pump	9	-0.689655172413793	-1.9	exponential	explosion	9	red	0.430643231586474	0	NA	NA
373.713	0.604	19	7	pump	9	0.310344827586207	-0.9	exponential	explosion	9	red	0.595258881579143	0	NA	NA
376.013	1.135	19	8	pump	9	1.31034482758621	0.0999999999999996	exponential	explosion	9	red	0.787932424540747	0	NA	NA
378.58	1.277	19	9	pump	9	NA	NA	exponential	explosion	9	red	1.00904206108857	0	381.532	2
385.647	0.95	20	1	pump	16	-5.68965517241379	-4.9	control	control	16	grey	0	0	NA	NA
387.846	0.422	20	2	pump	16	-4.68965517241379	-3.9	control	control	16	grey	0	0	NA	NA
389.496	0.503	20	3	pump	16	-3.68965517241379	-2.9	control	control	16	grey	0	0	NA	NA
391.946	0.523	20	4	pump	16	-2.68965517241379	-1.9	control	control	16	grey	0	0	NA	NA
393.763	0.807	20	5	pump	16	-1.68965517241379	-0.9	control	control	16	grey	0	0	NA	NA
395.796	0.942	20	6	pump	16	-0.689655172413793	0.0999999999999996	control	control	16	grey	0	0	NA	NA
398.68	0.631	20	7	pump	16	0.310344827586207	1.1	control	control	16	grey	0	0	NA	NA
401.296	0.642	20	8	pump	16	1.31034482758621	2.1	control	control	16	grey	0	0	NA	NA
403.763	0.616	20	9	pump	16	2.31034482758621	3.1	control	control	16	grey	0	0	NA	NA
405.53	0.903	20	10	pump	16	3.31034482758621	4.1	control	control	16	grey	0	0	NA	NA
408.446	0.656	20	11	pump	16	4.31034482758621	5.1	control	control	16	grey	0	0	NA	NA
410.463	0.721	20	12	pump	16	5.31034482758621	6.1	control	control	16	grey	0	0	NA	NA
412.28	0.813	20	13	pump	16	6.31034482758621	7.1	control	control	16	grey	0	0	NA	NA
414.196	0.787	20	14	pump	16	7.31034482758621	8.1	control	control	16	grey	0	0	NA	NA
416.313	0.699	20	15	pump	16	8.31034482758621	9.1	control	control	16	grey	0	0	NA	NA
418.88	0.703	20	16	pump	16	9.31034482758621	10.1	control	control	16	grey	0	0	NA	NA
422.896	1.054	21	1	pump	7	-5.68965517241379	-5.22222222222222	linear	cashout	12	blue	0.1	0.7	NA	NA
425.734	0.486	21	2	pump	7	-4.68965517241379	-4.22222222222222	linear	cashout	12	blue	0.2	0.7	NA	NA
428.046	0.486	21	3	pump	7	-3.68965517241379	-3.22222222222222	linear	cashout	12	blue	0.3	0.7	NA	NA
430.03	0.673	21	4	pump	7	-2.68965517241379	-2.22222222222222	linear	cashout	12	blue	0.4	0.7	NA	NA
432.38	0.841	21	5	pump	7	-1.68965517241379	-1.22222222222222	linear	cashout	12	blue	0.5	0.7	NA	NA
435.13	0.849	21	6	pump	7	-0.689655172413793	-0.222222222222222	linear	cashout	12	blue	0.6	0.7	NA	NA
437.98	0.613	21	7	pump	7	0.310344827586207	0.777777777777778	linear	cashout	12	blue	0.7	0.7	NA	NA
440.463	0.545	21	8	cashout	7	NA	NA	linear	cashout	12	blue	0.8	0.7	NA	NA
449.563	0.894	22	1	pump	3	-5.68965517241379	-5.22222222222222	linear	explosion	3	blue	0.1	0	NA	NA
451.763	0.889	22	2	pump	3	-4.68965517241379	-4.22222222222222	linear	explosion	3	blue	0.2	0	NA	NA
454.03	1.002	22	3	pump	3	NA	NA	linear	explosion	3	blue	0.3	0	456.863	2
461.88	0.886	23	1	pump	2	-5.68965517241379	-4.9	control	control	2	grey	0	0	NA	NA
464.046	0.749	23	2	pump	2	-4.68965517241379	-3.9	control	control	2	grey	0	0	NA	NA
475.663	0.633	24	1	pump	8	-5.68965517241379	-6.9	exponential	cashout	10	red	0.01	0.79	NA	NA
477.68	0.514	24	2	pump	8	-4.68965517241379	-5.9	exponential	cashout	10	red	0.0428709385014517	0.79	NA	NA
479.496	0.701	24	3	pump	8	-3.68965517241379	-4.9	exponential	cashout	10	red	0.100451085663051	0.79	NA	NA
481.398	0.832	24	4	pump	8	-2.68965517241379	-3.9	exponential	cashout	10	red	0.183791736799526	0.79	NA	NA
484.247	0.548	24	5	pump	8	-1.68965517241379	-2.9	exponential	cashout	10	red	0.293654735772005	0.79	NA	NA
486.48	0.983	24	6	pump	8	-0.689655172413793	-1.9	exponential	cashout	10	red	0.430643231586474	0.79	NA	NA
488.563	0.681	24	7	pump	8	0.310344827586207	-0.9	exponential	cashout	10	red	0.595258881579143	0.79	NA	NA
490.88	0.751	24	8	pump	8	1.31034482758621	0.0999999999999996	exponential	cashout	10	red	0.787932424540747	0.79	NA	NA
492.93	2.807	24	9	cashout	8	NA	NA	exponential	cashout	10	red	1.00904206108857	0.79	NA	NA
503.163	0.645	25	1	pump	1	-5.68965517241379	-4.9	control	control	1	grey	0	0	NA	NA
506.78	0.878	26	1	pump	5	-5.68965517241379	-6.9	exponential	cashout	9	red	0.01	0.29	NA	NA
509.096	0.818	26	2	pump	5	-4.68965517241379	-5.9	exponential	cashout	9	red	0.0428709385014517	0.29	NA	NA
511.296	0.683	26	3	pump	5	-3.68965517241379	-4.9	exponential	cashout	9	red	0.100451085663051	0.29	NA	NA
513.563	0.614	26	4	pump	5	-2.68965517241379	-3.9	exponential	cashout	9	red	0.183791736799526	0.29	NA	NA
516.236	0.748	26	5	pump	5	-1.68965517241379	-2.9	exponential	cashout	9	red	0.293654735772005	0.29	NA	NA
518.663	0.63	26	6	cashout	5	NA	NA	exponential	cashout	9	red	0.430643231586474	0.29	NA	NA
529.982	0.958	27	1	pump	10	-5.68965517241379	-5.22222222222222	linear	cashout	13	blue	0.1	1	NA	NA
532.214	0.565	27	2	pump	10	-4.68965517241379	-4.22222222222222	linear	cashout	13	blue	0.2	1	NA	NA
534.597	0.395	27	3	pump	10	-3.68965517241379	-3.22222222222222	linear	cashout	13	blue	0.3	1	NA	NA
536.413	0.482	27	4	pump	10	-2.68965517241379	-2.22222222222222	linear	cashout	13	blue	0.4	1	NA	NA
538.33	0.467	27	5	pump	10	-1.68965517241379	-1.22222222222222	linear	cashout	13	blue	0.5	1	NA	NA
539.863	0.856	27	6	pump	10	-0.689655172413793	-0.222222222222222	linear	cashout	13	blue	0.6	1	NA	NA
541.83	1.125	27	7	pump	10	0.310344827586207	0.777777777777778	linear	cashout	13	blue	0.7	1	NA	NA
544.047	0.782	27	8	pump	10	1.31034482758621	1.77777777777778	linear	cashout	13	blue	0.8	1	NA	NA
546.363	0.869	27	9	pump	10	2.31034482758621	2.77777777777778	linear	cashout	13	blue	0.9	1	NA	NA
548.33	1.316	27	10	pump	10	3.31034482758621	3.77777777777778	linear	cashout	13	blue	1	1	NA	NA
551.447	0.715	27	11	cashout	10	NA	NA	linear	cashout	13	blue	1.1	1	NA	NA
565.547	0.595	28	1	pump	10	-5.68965517241379	-6.9	exponential	cashout	16	red	0.01	1.26	NA	NA
567.863	0.534	28	2	pump	10	-4.68965517241379	-5.9	exponential	cashout	16	red	0.0428709385014517	1.26	NA	NA
570.285	0.527	28	3	pump	10	-3.68965517241379	-4.9	exponential	cashout	16	red	0.100451085663051	1.26	NA	NA
572.613	0.543	28	4	pump	10	-2.68965517241379	-3.9	exponential	cashout	16	red	0.183791736799526	1.26	NA	NA
575.097	0.553	28	5	pump	10	-1.68965517241379	-2.9	exponential	cashout	16	red	0.293654735772005	1.26	NA	NA
577.48	0.502	28	6	pump	10	-0.689655172413793	-1.9	exponential	cashout	16	red	0.430643231586474	1.26	NA	NA
579.348	0.912	28	7	pump	10	0.310344827586207	-0.9	exponential	cashout	16	red	0.595258881579143	1.26	NA	NA
581.764	0.928	28	8	pump	10	1.31034482758621	0.0999999999999996	exponential	cashout	16	red	0.787932424540747	1.26	NA	NA
584.63	0.608	28	9	pump	10	2.31034482758621	1.1	exponential	cashout	16	red	1.00904206108857	1.26	NA	NA
586.83	1.322	28	10	pump	10	3.31034482758621	2.1	exponential	cashout	16	red	1.25892541179417	1.26	NA	NA
589.697	0.648	28	11	cashout	10	NA	NA	exponential	cashout	16	red	1.53788775440427	1.26	NA	NA
596.013	0.623	29	1	pump	11	-5.68965517241379	-4.9	control	control	11	grey	0	0	NA	NA
597.913	0.451	29	2	pump	11	-4.68965517241379	-3.9	control	control	11	grey	0	0	NA	NA
599.941	0.824	29	3	pump	11	-3.68965517241379	-2.9	control	control	11	grey	0	0	NA	NA
601.913	0.759	29	4	pump	11	-2.68965517241379	-1.9	control	control	11	grey	0	0	NA	NA
603.997	0.96	29	5	pump	11	-1.68965517241379	-0.9	control	control	11	grey	0	0	NA	NA
606.73	0.578	29	6	pump	11	-0.689655172413793	0.0999999999999996	control	control	11	grey	0	0	NA	NA
609.247	0.435	29	7	pump	11	0.310344827586207	1.1	control	control	11	grey	0	0	NA	NA
611.747	0.606	29	8	pump	11	1.31034482758621	2.1	control	control	11	grey	0	0	NA	NA
613.513	1.148	29	9	pump	11	2.31034482758621	3.1	control	control	11	grey	0	0	NA	NA
616.397	0.35	29	10	pump	11	3.31034482758621	4.1	control	control	11	grey	0	0	NA	NA
618.213	0.511	29	11	pump	11	4.31034482758621	5.1	control	control	11	grey	0	0	NA	NA
