onset	duration	trial	trial_id	choice	choice_bin	magnitude_sooner	delay_sooner	magnitude_later	delay_later	onset_choice_fb	duration_choice_fb
13.916	1.756	1	66	SS	1	11.96	4	12.32	6	15.7	1.5
19.466	1.618	2	61	SS	1	18.24	2	20.97	6	21.116	1.5
24.15	1.567	3	56	LL	2	26.96	2	40.44	6	25.75	1.5
31.083	1.445	4	65	SS	1	13.22	4	13.35	6	32.566	1.5
36.151	1.398	5	64	LL	2	26.95	2	40.42	6	37.567	1.5
47.6	2.321	6	15	SS	1	16.47	0	22.24	2	49.95	1.5
54.733	1.373	7	25	SS	1	9.89	0	9.99	4	56.133	1.5
60.583	1.53	8	59	SS	1	11.17	2	11.73	6	62.133	1.5
66.15	1.632	9	46	LL	2	30.77	2	38.46	4	67.816	1.5
70.95	1.29	10	42	SS	1	9.5	2	9.79	4	72.266	1.5
75.766	1.473	11	28	SS	1	6.41	0	7.05	4	77.266	1.5
80.916	1.534	12	54	SS	1	14.88	2	18.61	6	82.469	1.5
86.85	1.32	13	26	SS	1	38.48	0	39.63	4	88.183	1.5
92.966	1.498	14	24	SS	1	11.37	0	17.06	4	94.483	1.5
102.433	1.894	15	80	SS	1	9.39	4	14.08	6	104.35	1.5
111.266	1.425	16	78	LL	2	18.61	4	23.27	6	112.716	1.5
116.916	1.858	17	38	LL	2	32.44	2	40.55	4	118.8	1.5
122.15	1.465	18	8	SS	1	14.49	0	21.74	2	123.65	1.5
127.75	1.668	19	45	SS	1	36.8	2	42.32	4	129.45	1.5
134.268	1.615	20	34	SS	1	7.42	2	7.64	4	135.901	1.5
140.55	1.576	21	33	SS	1	25.56	2	25.82	4	142.15	1.5
147.467	1.555	22	60	SS	1	6.45	2	7.1	6	149.05	1.5
152.467	1.854	23	76	SS	1	22.92	4	25.21	6	154.35	1.5
164.15	1.935	24	6	SS	1	10.5	0	13.13	2	166.117	1.5
171.1	1.444	25	17	SS	1	22.32	0	22.55	4	172.571	1.5
177.783	1.529	26	69	SS	1	22.62	4	26.01	6	179.35	1.5
189.15	1.855	27	7	LL	2	19.45	0	26.26	2	191.033	1.5
195.767	1.661	28	5	LL	2	32.79	0	37.71	2	197.45	1.5
203.033	1.728	29	30	LL	2	25.92	0	32.4	4	204.783	1.5
210.233	1.492	30	48	LL	2	22.77	2	34.16	4	211.75	1.5
216.767	1.51	31	47	LL	2	20.07	2	27.1	4	218.3	1.5
223.267	1.568	32	75	SS	1	20.18	4	21.19	6	224.867	1.5
228.867	1.543	33	18	SS	1	5.78	0	5.95	4	230.435	1.5
234.967	1.375	34	2	SS	1	24.28	0	25	2	236.367	1.5
240.067	2.12	35	49	SS	1	23.7	2	23.94	6	242.215	1.5
248.85	1.447	36	13	SS	1	16.21	0	18.64	2	250.317	1.5
257.017	2.043	37	79	LL	2	14.58	4	19.68	6	259.083	1.5
265.967	1.744	38	71	SS	1	10.98	4	14.83	6	267.739	1.5
273.183	1.729	39	44	SS	1	22.39	2	24.62	4	274.95	1.5
282.518	1.26	40	22	SS	1	18.4	0	23	4	283.801	1.5
289.25	1.537	41	51	SS	1	37.85	2	39.74	6	290.815	1.5
298.85	1.828	42	68	SS	1	25.55	4	28.11	6	300.7	1.5
304.283	1.694	43	29	SS	1	32.7	0	37.6	4	306	1.5
310.925	1.706	44	37	SS	1	17.36	2	19.96	4	312.667	1.5
323.383	1.809	45	35	SS	1	20.14	2	21.15	4	325.22	1.5
329.935	1.875	46	1	SS	1	37.69	0	38.07	2	331.834	1.5
335.15	2.039	47	73	SS	1	9.59	4	9.68	6	337.216	1.5
340.934	1.726	48	32	LL	2	11.53	0	17.29	4	342.684	1.5
350.6	2.205	49	40	SS	1	12.44	2	18.66	4	352.834	1.5
356	2.194	50	77	SS	1	25.13	4	28.9	6	358.217	1.5
369.167	2.124	51	53	LL	2	35.19	2	40.46	6	371.317	1.5
374.417	2.469	52	52	SS	1	30.66	2	33.73	6	376.917	1.5
380.651	1.819	53	39	LL	2	14.56	2	19.66	4	382.484	1.5
387.917	1.875	54	11	SS	1	24.85	0	26.09	2	389.817	1.5
394.434	2.138	55	12	SS	1	21.96	0	24.16	2	396.6	1.5
407.2	1.616	56	50	SS	1	20.53	2	21.14	6	408.85	1.5
412.967	2.033	57	41	SS	1	11.65	2	11.77	4	415.034	1.5
425.084	1.788	58	67	SS	1	6.26	4	6.57	6	426.9	1.5
430.268	1.912	59	16	LL	2	19.29	0	28.94	2	432.201	1.5
436.95	1.542	60	19	SS	1	28.48	0	29.91	4	438.517	1.5
447.4	1.863	61	63	LL	2	25.61	2	34.57	6	449.284	1.5
455.45	2.022	62	62	SS	1	25.3	2	31.63	6	457.5	1.5
468.667	1.786	63	10	SS	1	21.66	0	22.31	2	470.484	1.5
474.317	1.97	64	70	LL	2	25.9	4	32.37	6	476.302	1.5
488.332	0.825	65	27	SS	1	22.78	0	23.92	4	489.184	1.5
494.217	1.579	66	21	SS	1	19.12	0	21.99	4	495.817	1.5
504.5	2.111	67	55	LL	2	29.45	2	39.75	6	506.634	1.5
510.334	2.195	68	36	SS	1	18.11	2	19.92	4	512.557	1.5
515.517	2.494	69	72	LL	2	29.27	4	43.91	6	518.051	1.5
523.867	1.843	70	9	SS	1	22.32	0	22.54	2	525.736	1.5
531.634	2.268	71	3	SS	1	10.51	0	11.04	2	533.917	1.5
539.184	5	72	31	NA	NA	23.44	0	31.64	4	NA	NA
547.184	1.324	73	14	SS	1	27.84	0	34.8	2	548.534	1.5
557.751	2.184	74	4	SS	1	13.42	0	14.77	2	559.967	1.5
564.401	1.874	75	23	SS	1	6.11	0	8.25	4	566.301	1.5
571.184	1.543	76	57	SS	1	28.25	2	28.53	6	572.767	1.5
579.051	1.498	77	20	SS	1	30.4	0	33.44	4	580.567	1.5
583.684	2.089	78	74	SS	1	13.42	4	13.82	6	585.801	1.5
591.734	1.583	79	43	SS	1	24.99	2	26.24	4	593.334	1.5
597.384	1.604	80	58	SS	1	12.69	2	13.07	6	599.017	1.5
