onset	duration	balloon_number	balloon_idx	response	pumps	pumps_demean_all	pumps_demean_type	balloon_type	balloon_outcome	balloon_maxpumps	balloon_colour	balloon_payoff_cumulative	balloon_payoff_total	onset_explosion	duration_explosion
4.045	1.293	1	1	pump	8	-4.75	-7.7	control	control	8	grey	0	0	NA	NA
7.278	1.619	1	2	pump	8	-3.75	-6.7	control	control	8	grey	0	0	NA	NA
10.043	0.874	1	3	pump	8	-2.75	-5.7	control	control	8	grey	0	0	NA	NA
12.926	0.637	1	4	pump	8	-1.75	-4.7	control	control	8	grey	0	0	NA	NA
14.626	1.513	1	5	pump	8	-0.75	-3.7	control	control	8	grey	0	0	NA	NA
17.909	0.573	1	6	pump	8	0.25	-2.7	control	control	8	grey	0	0	NA	NA
20.076	0.808	1	7	pump	8	1.25	-1.7	control	control	8	grey	0	0	NA	NA
22.893	0.674	1	8	pump	8	2.25	-0.699999999999999	control	control	8	grey	0	0	NA	NA
27.626	0.792	2	1	pump	4	-4.75	-3.18181818181818	linear	cashout	14	red	0.1	0.4	NA	NA
29.543	0.659	2	2	pump	4	-3.75	-2.18181818181818	linear	cashout	14	red	0.2	0.4	NA	NA
31.726	0.507	2	3	pump	4	-2.75	-1.18181818181818	linear	cashout	14	red	0.3	0.4	NA	NA
34.01	0.232	2	4	pump	4	-1.75	-0.181818181818182	linear	cashout	14	red	0.4	0.4	NA	NA
36.243	0.827	2	5	cashout	4	NA	NA	linear	cashout	14	red	0.5	0.4	NA	NA
42.71	0.67	3	1	pump	5	-4.75	-3.63636363636364	exponential	cashout	11	blue	0.01	0.29	NA	NA
45.015	0.325	3	2	pump	5	-3.75	-2.63636363636364	exponential	cashout	11	blue	0.0428709385014517	0.29	NA	NA
46.631	0.912	3	3	pump	5	-2.75	-1.63636363636364	exponential	cashout	11	blue	0.100451085663051	0.29	NA	NA
48.73	0.53	3	4	pump	5	-1.75	-0.636363636363637	exponential	cashout	11	blue	0.183791736799526	0.29	NA	NA
51.196	0.058	3	5	pump	5	-0.75	0.363636363636363	exponential	cashout	11	blue	0.293654735772005	0.29	NA	NA
53.045	0.243	3	6	cashout	5	NA	NA	exponential	cashout	11	blue	0.430643231586474	0.29	NA	NA
58.01	0.229	4	1	pump	5	-4.75	-3.63636363636364	exponential	cashout	12	blue	0.01	0.29	NA	NA
60.193	0.01	4	2	pump	5	-3.75	-2.63636363636364	exponential	cashout	12	blue	0.0428709385014517	0.29	NA	NA
61.26	0.863	4	3	pump	5	-2.75	-1.63636363636364	exponential	cashout	12	blue	0.100451085663051	0.29	NA	NA
63.376	0.835	4	4	pump	5	-1.75	-0.636363636363637	exponential	cashout	12	blue	0.183791736799526	0.29	NA	NA
65.976	0.286	4	5	pump	5	-0.75	0.363636363636363	exponential	cashout	12	blue	0.293654735772005	0.29	NA	NA
67.46	0.332	4	6	cashout	5	NA	NA	exponential	cashout	12	blue	0.430643231586474	0.29	NA	NA
77.377	0.507	5	1	pump	5	-4.75	-7.7	control	control	5	grey	0	0	NA	NA
79.777	0.532	5	2	pump	5	-3.75	-6.7	control	control	5	grey	0	0	NA	NA
82.177	1.83	5	3	pump	5	-2.75	-5.7	control	control	5	grey	0	0	NA	NA
85.36	1.034	5	4	pump	5	-1.75	-4.7	control	control	5	grey	0	0	NA	NA
87.527	0.56	5	5	pump	5	-0.75	-3.7	control	control	5	grey	0	0	NA	NA
92.893	0.721	6	1	pump	5	-4.75	-3.18181818181818	linear	cashout	16	red	0.1	0.5	NA	NA
95.643	0.479	6	2	pump	5	-3.75	-2.18181818181818	linear	cashout	16	red	0.2	0.5	NA	NA
98.127	0.292	6	3	pump	5	-2.75	-1.18181818181818	linear	cashout	16	red	0.3	0.5	NA	NA
99.563	1.012	6	4	pump	5	-1.75	-0.181818181818182	linear	cashout	16	red	0.4	0.5	NA	NA
102.612	1.46	6	5	pump	5	-0.75	0.818181818181818	linear	cashout	16	red	0.5	0.5	NA	NA
105.494	0.644	6	6	cashout	5	NA	NA	linear	cashout	16	red	0.6	0.5	NA	NA
113.56	0.686	7	1	pump	3	-4.75	-3.18181818181818	linear	explosion	3	red	0.1	0	NA	NA
116.06	0.528	7	2	pump	3	-3.75	-2.18181818181818	linear	explosion	3	red	0.2	0	NA	NA
118.16	0.522	7	3	pump	3	NA	NA	linear	explosion	3	red	0.3	0	120.577	2
125.477	0.564	8	1	pump	1	NA	NA	exponential	explosion	1	blue	0.01	0	127.877	2.00000000000001
137.794	0.979	9	1	pump	2	-4.75	-7.7	control	control	2	grey	0	0	NA	NA
139.994	2.024	9	2	pump	2	-3.75	-6.7	control	control	2	grey	0	0	NA	NA
147.33	0.71	10	1	pump	3	-4.75	-3.18181818181818	linear	explosion	3	red	0.1	0	NA	NA
149.296	0.866	10	2	pump	3	-3.75	-2.18181818181818	linear	explosion	3	red	0.2	0	NA	NA
151.479	0.544	10	3	pump	3	NA	NA	linear	explosion	3	red	0.3	0	153.862	2
159.111	0.472	11	1	pump	4	-4.75	-3.63636363636364	exponential	cashout	14	blue	0.01	0.18	NA	NA
160.827	0.321	11	2	pump	4	-3.75	-2.63636363636364	exponential	cashout	14	blue	0.0428709385014517	0.18	NA	NA
162.877	0.463	11	3	pump	4	-2.75	-1.63636363636364	exponential	cashout	14	blue	0.100451085663051	0.18	NA	NA
164.744	0.761	11	4	pump	4	-1.75	-0.636363636363637	exponential	cashout	14	blue	0.183791736799526	0.18	NA	NA
167.044	0.948	11	5	cashout	4	NA	NA	exponential	cashout	14	blue	0.293654735772005	0.18	NA	NA
181.161	0.619	12	1	pump	16	-4.75	-7.7	control	control	16	grey	0	0	NA	NA
182.994	1.566	12	2	pump	16	-3.75	-6.7	control	control	16	grey	0	0	NA	NA
186.294	2.145	12	3	pump	16	-2.75	-5.7	control	control	16	grey	0	0	NA	NA
190.366	0.266	12	4	pump	16	-1.75	-4.7	control	control	16	grey	0	0	NA	NA
191.882	0.425	12	5	pump	16	-0.75	-3.7	control	control	16	grey	0	0	NA	NA
193.461	0.517	12	6	pump	16	0.25	-2.7	control	control	16	grey	0	0	NA	NA
195.714	0.452	12	7	pump	16	1.25	-1.7	control	control	16	grey	0	0	NA	NA
197.997	0.321	12	8	pump	16	2.25	-0.699999999999999	control	control	16	grey	0	0	NA	NA
200.146	0.347	12	9	pump	16	3.25	0.300000000000001	control	control	16	grey	0	0	NA	NA
202.479	0.419	12	10	pump	16	4.25	1.3	control	control	16	grey	0	0	NA	NA
204.111	0.442	12	11	pump	16	5.25	2.3	control	control	16	grey	0	0	NA	NA
205.661	0.71	12	12	pump	16	6.25	3.3	control	control	16	grey	0	0	NA	NA
208.161	0.746	12	13	pump	16	7.25	4.3	control	control	16	grey	0	0	NA	NA
210.411	3.178	12	14	pump	16	8.25	5.3	control	control	16	grey	0	0	NA	NA
215.595	0.726	12	15	pump	16	9.25	6.3	control	control	16	grey	0	0	NA	NA
218.311	0.745	12	16	pump	16	10.25	7.3	control	control	16	grey	0	0	NA	NA
223.195	0.403	13	1	pump	1	NA	NA	linear	explosion	1	red	0.1	0	225.328	2
231.528	0.239	14	1	pump	11	-4.75	-7.7	control	control	11	grey	0	0	NA	NA
233.095	0.383	14	2	pump	11	-3.75	-6.7	control	control	11	grey	0	0	NA	NA
235.311	0.199	14	3	pump	11	-2.75	-5.7	control	control	11	grey	0	0	NA	NA
236.978	0.283	14	4	pump	11	-1.75	-4.7	control	control	11	grey	0	0	NA	NA
238.916	0.054	14	5	pump	11	-0.75	-3.7	control	control	11	grey	0	0	NA	NA
240.632	0.518	14	6	pump	11	0.25	-2.7	control	control	11	grey	0	0	NA	NA
242.265	0.382	14	7	pump	11	1.25	-1.7	control	control	11	grey	0	0	NA	NA
243.881	0.788	14	8	pump	11	2.25	-0.699999999999999	control	control	11	grey	0	0	NA	NA
246.68	0.341	14	9	pump	11	3.25	0.300000000000001	control	control	11	grey	0	0	NA	NA
248.713	0.422	14	10	pump	11	4.25	1.3	control	control	11	grey	0	0	NA	NA
250.712	0.452	14	11	pump	11	5.25	2.3	control	control	11	grey	0	0	NA	NA
254.362	0.896	15	1	pump	4	-4.75	-3.63636363636364	exponential	explosion	4	blue	0.01	0	NA	NA
256.878	0.285	15	2	pump	4	-3.75	-2.63636363636364	exponential	explosion	4	blue	0.0428709385014517	0	NA	NA
258.562	0.406	15	3	pump	4	-2.75	-1.63636363636364	exponential	explosion	4	blue	0.100451085663051	0	NA	NA
260.812	0.265	15	4	pump	4	NA	NA	exponential	explosion	4	blue	0.183791736799526	0	262.328	2
274.262	0.626	16	1	pump	3	-4.75	-3.63636363636364	exponential	explosion	3	blue	0.01	0	NA	NA
276.328	0.733	16	2	pump	3	-3.75	-2.63636363636364	exponential	explosion	3	blue	0.0428709385014517	0	NA	NA
278.245	1.188	16	3	pump	3	NA	NA	exponential	explosion	3	blue	0.100451085663051	0	281.045	2
285.984	0.327	17	1	pump	9	-4.75	-7.7	control	control	9	grey	0	0	NA	NA
287.417	0.44	17	2	pump	9	-3.75	-6.7	control	control	9	grey	0	0	NA	NA
289.283	0.649	17	3	pump	9	-2.75	-5.7	control	control	9	grey	0	0	NA	NA
291.149	0.803	17	4	pump	9	-1.75	-4.7	control	control	9	grey	0	0	NA	NA
293.565	0.366	17	5	pump	9	-0.75	-3.7	control	control	9	grey	0	0	NA	NA
295.564	0.85	17	6	pump	9	0.25	-2.7	control	control	9	grey	0	0	NA	NA
297.896	0.671	17	7	pump	9	1.25	-1.7	control	control	9	grey	0	0	NA	NA
300.346	0.482	17	8	pump	9	2.25	-0.699999999999999	control	control	9	grey	0	0	NA	NA
302.029	0.494	17	9	pump	9	3.25	0.300000000000001	control	control	9	grey	0	0	NA	NA
305.729	0.553	18	1	pump	4	-4.75	-3.18181818181818	linear	explosion	4	red	0.1	0	NA	NA
307.729	0.473	18	2	pump	4	-3.75	-2.18181818181818	linear	explosion	4	red	0.2	0	NA	NA
310.095	0.277	18	3	pump	4	-2.75	-1.18181818181818	linear	explosion	4	red	0.3	0	NA	NA
311.445	1.291	18	4	pump	4	NA	NA	linear	explosion	4	red	0.4	0	314.012	2
322.096	0.437	19	1	pump	4	-4.75	-3.63636363636364	exponential	cashout	11	blue	0.01	0.18	NA	NA
324.296	0.412	19	2	pump	4	-3.75	-2.63636363636364	exponential	cashout	11	blue	0.0428709385014517	0.18	NA	NA
326.379	0.614	19	3	pump	4	-2.75	-1.63636363636364	exponential	cashout	11	blue	0.100451085663051	0.18	NA	NA
328.696	0.57	19	4	pump	4	-1.75	-0.636363636363637	exponential	cashout	11	blue	0.183791736799526	0.18	NA	NA
331.179	0.592	19	5	cashout	4	NA	NA	exponential	cashout	11	blue	0.293654735772005	0.18	NA	NA
336.633	0.479	20	1	pump	12	-4.75	-7.7	control	control	12	grey	0	0	NA	NA
338.383	0.536	20	2	pump	12	-3.75	-6.7	control	control	12	grey	0	0	NA	NA
340.682	0.228	20	3	pump	12	-2.75	-5.7	control	control	12	grey	0	0	NA	NA
342.082	0.442	20	4	pump	12	-1.75	-4.7	control	control	12	grey	0	0	NA	NA
344.281	0.423	20	5	pump	12	-0.75	-3.7	control	control	12	grey	0	0	NA	NA
345.997	0.393	20	6	pump	12	0.25	-2.7	control	control	12	grey	0	0	NA	NA
347.746	0.417	20	7	pump	12	1.25	-1.7	control	control	12	grey	0	0	NA	NA
349.713	0.389	20	8	pump	12	2.25	-0.699999999999999	control	control	12	grey	0	0	NA	NA
351.863	0.449	20	9	pump	12	3.25	0.300000000000001	control	control	12	grey	0	0	NA	NA
353.363	1.087	20	10	pump	12	4.25	1.3	control	control	12	grey	0	0	NA	NA
355.613	1.107	20	11	pump	12	5.25	2.3	control	control	12	grey	0	0	NA	NA
357.863	1.397	20	12	pump	12	6.25	3.3	control	control	12	grey	0	0	NA	NA
362.846	0.651	21	1	pump	4	-4.75	-3.18181818181818	linear	explosion	4	red	0.1	0	NA	NA
365.029	2.264	21	2	pump	4	-3.75	-2.18181818181818	linear	explosion	4	red	0.2	0	NA	NA
368.963	2.456	21	3	pump	4	-2.75	-1.18181818181818	linear	explosion	4	red	0.3	0	NA	NA
372.913	1.212	21	4	pump	4	NA	NA	linear	explosion	4	red	0.4	0	375.246	2
379.396	0.557	22	1	pump	4	-4.75	-3.18181818181818	linear	cashout	16	red	0.1	0.4	NA	NA
381.363	0.429	22	2	pump	4	-3.75	-2.18181818181818	linear	cashout	16	red	0.2	0.4	NA	NA
383.701	0.002	22	3	pump	4	-2.75	-1.18181818181818	linear	cashout	16	red	0.3	0.4	NA	NA
385.167	0.513	22	4	pump	4	-1.75	-0.181818181818182	linear	cashout	16	red	0.4	0.4	NA	NA
386.983	0.495	22	5	cashout	4	NA	NA	linear	cashout	16	red	0.5	0.4	NA	NA
395.763	0.916	23	1	pump	4	-4.75	-3.63636363636364	exponential	cashout	16	blue	0.01	0.18	NA	NA
398.113	1.426	23	2	pump	4	-3.75	-2.63636363636364	exponential	cashout	16	blue	0.0428709385014517	0.18	NA	NA
400.996	2.264	23	3	pump	4	-2.75	-1.63636363636364	exponential	cashout	16	blue	0.100451085663051	0.18	NA	NA
405.263	0.55	23	4	pump	4	-1.75	-0.636363636363637	exponential	cashout	16	blue	0.183791736799526	0.18	NA	NA
406.996	0.799	23	5	cashout	4	NA	NA	exponential	cashout	16	blue	0.293654735772005	0.18	NA	NA
413.78	0.975	24	1	pump	8	-4.75	-7.7	control	control	8	grey	0	0	NA	NA
416.38	1.027	24	2	pump	8	-3.75	-6.7	control	control	8	grey	0	0	NA	NA
419.38	0.828	24	3	pump	8	-2.75	-5.7	control	control	8	grey	0	0	NA	NA
421.447	0.481	24	4	pump	8	-1.75	-4.7	control	control	8	grey	0	0	NA	NA
423.813	0.294	24	5	pump	8	-0.75	-3.7	control	control	8	grey	0	0	NA	NA
426.13	1.817	24	6	pump	8	0.25	-2.7	control	control	8	grey	0	0	NA	NA
429.03	0.945	24	7	pump	8	1.25	-1.7	control	control	8	grey	0	0	NA	NA
431.385	1.346	24	8	pump	8	2.25	-0.699999999999999	control	control	8	grey	0	0	NA	NA
438.799	0.85	25	1	pump	5	-4.75	-3.18181818181818	linear	cashout	11	red	0.1	0.5	NA	NA
441.231	0.931	25	2	pump	5	-3.75	-2.18181818181818	linear	cashout	11	red	0.2	0.5	NA	NA
443.431	1.027	25	3	pump	5	-2.75	-1.18181818181818	linear	cashout	11	red	0.3	0.5	NA	NA
446.247	0.702	25	4	pump	5	-1.75	-0.181818181818182	linear	cashout	11	red	0.4	0.5	NA	NA
448.33	1.046	25	5	pump	5	-0.75	0.818181818181818	linear	cashout	11	red	0.5	0.5	NA	NA
451.097	0.543	25	6	cashout	5	NA	NA	linear	cashout	11	red	0.6	0.5	NA	NA
457.48	0.662	26	1	pump	14	-4.75	-7.7	control	control	14	grey	0	0	NA	NA
459.747	0.849	26	2	pump	14	-3.75	-6.7	control	control	14	grey	0	0	NA	NA
462.297	0.213	26	3	pump	14	-2.75	-5.7	control	control	14	grey	0	0	NA	NA
463.814	1.599	26	4	pump	14	-1.75	-4.7	control	control	14	grey	0	0	NA	NA
466.747	1.184	26	5	pump	14	-0.75	-3.7	control	control	14	grey	0	0	NA	NA
469.88	0.559	26	6	pump	14	0.25	-2.7	control	control	14	grey	0	0	NA	NA
472.314	0.647	26	7	pump	14	1.25	-1.7	control	control	14	grey	0	0	NA	NA
474.347	4.953	26	8	pump	14	2.25	-0.699999999999999	control	control	14	grey	0	0	NA	NA
481.051	0.918	26	9	pump	14	3.25	0.300000000000001	control	control	14	grey	0	0	NA	NA
484	0.739	26	10	pump	14	4.25	1.3	control	control	14	grey	0	0	NA	NA
486.283	1.027	26	11	pump	14	5.25	2.3	control	control	14	grey	0	0	NA	NA
489.132	0.856	26	12	pump	14	6.25	3.3	control	control	14	grey	0	0	NA	NA
491.781	1.064	26	13	pump	14	7.25	4.3	control	control	14	grey	0	0	NA	NA
494.681	0.931	26	14	pump	14	8.25	5.3	control	control	14	grey	0	0	NA	NA
499.481	2.104	27	1	pump	4	-4.75	-3.63636363636364	exponential	cashout	12	blue	0.01	0.18	NA	NA
503.081	0.932	27	2	pump	4	-3.75	-2.63636363636364	exponential	cashout	12	blue	0.0428709385014517	0.18	NA	NA
505.414	0.435	27	3	pump	4	-2.75	-1.63636363636364	exponential	cashout	12	blue	0.100451085663051	0.18	NA	NA
507.631	0.877	27	4	pump	4	-1.75	-0.636363636363637	exponential	cashout	12	blue	0.183791736799526	0.18	NA	NA
509.947	0.519	27	5	cashout	4	NA	NA	exponential	cashout	12	blue	0.293654735772005	0.18	NA	NA
517.097	0.606	28	1	pump	5	-4.75	-3.18181818181818	linear	cashout	15	red	0.1	0.5	NA	NA
518.831	3.602	28	2	pump	5	-3.75	-2.18181818181818	linear	cashout	15	red	0.2	0.5	NA	NA
524.114	1.209	28	3	pump	5	-2.75	-1.18181818181818	linear	cashout	15	red	0.3	0.5	NA	NA
526.681	7.716	28	4	pump	5	-1.75	-0.181818181818182	linear	cashout	15	red	0.4	0.5	NA	NA
535.6	1.946	28	5	pump	5	-0.75	0.818181818181818	linear	cashout	15	red	0.5	0.5	NA	NA
539.132	1.106	28	6	cashout	5	NA	NA	linear	cashout	15	red	0.6	0.5	NA	NA
546.381	0.3	29	1	pump	2	-4.75	-7.7	control	control	2	grey	0	0	NA	NA
548.448	0.305	29	2	pump	2	-3.75	-6.7	control	control	2	grey	0	0	NA	NA
554.298	0.363	30	1	pump	9	-4.75	-3.63636363636364	exponential	cashout	11	blue	0.01	1.01	NA	NA
555.715	0.618	30	2	pump	9	-3.75	-2.63636363636364	exponential	cashout	11	blue	0.0428709385014517	1.01	NA	NA
557.815	0.499	30	3	pump	9	-2.75	-1.63636363636364	exponential	cashout	11	blue	0.100451085663051	1.01	NA	NA
559.548	0.828	30	4	pump	9	-1.75	-0.636363636363637	exponential	cashout	11	blue	0.183791736799526	1.01	NA	NA
562.298	0.336	30	5	pump	9	-0.75	0.363636363636363	exponential	cashout	11	blue	0.293654735772005	1.01	NA	NA
564.181	0.372	30	6	pump	9	0.25	1.36363636363636	exponential	cashout	11	blue	0.430643231586474	1.01	NA	NA
565.981	0.663	30	7	pump	9	1.25	2.36363636363636	exponential	cashout	11	blue	0.595258881579143	1.01	NA	NA
567.748	0.939	30	8	pump	9	2.25	3.36363636363636	exponential	cashout	11	blue	0.787932424540747	1.01	NA	NA
570.665	1.214	30	9	pump	9	3.25	4.36363636363636	exponential	cashout	11	blue	1.00904206108857	1.01	NA	NA
573.131	0.977	30	10	cashout	9	NA	NA	exponential	cashout	11	blue	1.25892541179417	1.01	NA	NA
580.934	0.466	31	1	pump	8	-4.75	-3.63636363636364	exponential	cashout	9	blue	0.01	0.79	NA	NA
582.934	0.027	31	2	pump	8	-3.75	-2.63636363636364	exponential	cashout	9	blue	0.0428709385014517	0.79	NA	NA
584.217	0.284	31	3	pump	8	-2.75	-1.63636363636364	exponential	cashout	9	blue	0.100451085663051	0.79	NA	NA
586.016	0.497	31	4	pump	8	-1.75	-0.636363636363637	exponential	cashout	9	blue	0.183791736799526	0.79	NA	NA
587.749	0.789	31	5	pump	8	-0.75	0.363636363636363	exponential	cashout	9	blue	0.293654735772005	0.79	NA	NA
590.482	0.374	31	6	pump	8	0.25	1.36363636363636	exponential	cashout	9	blue	0.430643231586474	0.79	NA	NA
592.532	0.398	31	7	pump	8	1.25	2.36363636363636	exponential	cashout	9	blue	0.595258881579143	0.79	NA	NA
594.932	0.78	31	8	pump	8	2.25	3.36363636363636	exponential	cashout	9	blue	0.787932424540747	0.79	NA	NA
597.282	1.697	31	9	cashout	8	NA	NA	exponential	cashout	9	blue	1.00904206108857	0.79	NA	NA
604.965	0.314	32	1	pump	8	-4.75	-3.18181818181818	linear	explosion	8	red	0.1	0	NA	NA
606.882	0.24	32	2	pump	8	-3.75	-2.18181818181818	linear	explosion	8	red	0.2	0	NA	NA
608.232	0.804	32	3	pump	8	-2.75	-1.18181818181818	linear	explosion	8	red	0.3	0	NA	NA
610.965	0.417	32	4	pump	8	-1.75	-0.181818181818182	linear	explosion	8	red	0.4	0	NA	NA
613.382	0.496	32	5	pump	8	-0.75	0.818181818181818	linear	explosion	8	red	0.5	0	NA	NA
615.082	0.93	32	6	pump	8	0.25	1.81818181818182	linear	explosion	8	red	0.6	0	NA	NA
617.282	0.763	32	7	pump	8	1.25	2.81818181818182	linear	explosion	8	red	0.7	0	NA	NA
619.365	1.117	32	8	pump	8	NA	NA	linear	explosion	8	red	0.8	0	622.148	2
