onset	duration	trial	trial_id	choice	choice_bin	magnitude_sooner	delay_sooner	magnitude_later	delay_later	onset_choice_fb	duration_choice_fb
14.561	2.097	1	31	SS	1	23.44	0	31.64	4	16.677	1.5
22.361	4.213	2	55	SS	1	29.45	2	39.75	6	26.594	1.5
30.644	2.725	3	77	SS	1	25.13	4	28.9	6	33.394	1.5
37.844	3.815	4	79	SS	1	14.58	4	19.68	6	41.694	1.5
49.944	2.674	5	54	SS	1	14.88	2	18.61	6	52.644	1.5
59.094	4.21	6	47	LL	2	20.07	2	27.1	4	63.327	1.5
70.361	3.398	7	72	LL	2	29.27	4	43.91	6	73.777	1.5
80.894	1.79	8	44	SS	1	22.39	2	24.62	4	82.711	1.5
89.894	1.874	9	75	SS	1	20.18	4	21.19	6	91.794	1.5
97.465	3.629	10	7	LL	2	19.45	0	26.26	2	101.127	1.5
109.261	2.477	11	66	SS	1	11.96	4	12.32	6	111.761	1.5
116.344	2.635	12	34	SS	1	7.42	2	7.64	4	119.007	1.5
122.811	2.26	13	74	SS	1	13.42	4	13.82	6	125.094	1.5
133.461	2.188	14	13	SS	1	16.21	0	18.64	2	135.677	1.5
144.511	2.825	15	5	LL	2	32.79	0	37.71	2	147.361	1.5
153.312	2.014	16	28	SS	1	6.41	0	7.05	4	155.345	1.5
161.678	2.57	17	43	SS	1	24.99	2	26.24	4	164.278	1.5
173.828	1.997	18	50	SS	1	20.53	2	21.14	6	175.844	1.5
183.528	1.748	19	41	SS	1	11.65	2	11.77	4	185.311	1.5
190.411	2.692	20	70	LL	2	25.9	4	32.37	6	193.128	1.5
196.761	1.644	21	57	SS	1	28.25	2	28.53	6	198.444	1.5
204.561	1.89	22	67	SS	1	6.26	4	6.57	6	206.478	1.5
210.144	5	23	8	NA	NA	14.49	0	21.74	2	NA	NA
216.761	2.066	24	62	SS	1	25.3	2	31.63	6	218.844	1.5
222.594	2.24	25	30	SS	1	25.92	0	32.4	4	224.861	1.5
227.711	3.617	26	40	LL	2	12.44	2	18.66	4	231.361	1.5
237.728	3.27	27	39	SS	1	14.56	2	19.66	4	241.028	1.5
246.911	1.747	28	48	LL	2	22.77	2	34.16	4	248.694	1.5
255.661	3.448	29	63	LL	2	25.61	2	34.57	6	259.128	1.5
262.428	1.94	30	36	SS	1	18.11	2	19.92	4	264.394	1.5
269.028	2.805	31	51	SS	1	37.85	2	39.74	6	271.861	1.5
277.728	2.458	32	65	SS	1	13.22	4	13.35	6	280.211	1.5
285.494	1.596	33	4	SS	1	13.42	0	14.77	2	287.128	1.5
292.044	2.068	34	49	SS	1	23.7	2	23.94	6	294.144	1.5
298.63	1.594	35	73	SS	1	9.59	4	9.68	6	300.246	1.5
304.661	2.045	36	20	SS	1	30.4	0	33.44	4	306.728	1.5
311.128	1.539	37	35	SS	1	20.14	2	21.15	4	312.694	1.5
321.728	1.859	38	14	LL	2	27.84	0	34.8	2	323.611	1.5
328.428	2.391	39	24	SS	1	11.37	0	17.06	4	330.844	1.5
336.517	1.781	40	46	LL	2	30.77	2	38.46	4	338.328	1.5
343.461	2.043	41	52	SS	1	30.66	2	33.73	6	345.544	1.5
349.646	1.94	42	27	SS	1	22.78	0	23.92	4	351.612	1.5
361.278	3.216	43	56	LL	2	26.96	2	40.44	6	364.511	1.5
369.861	2.038	44	59	SS	1	11.17	2	11.73	6	371.928	1.5
378.878	2.94	45	29	SS	1	32.7	0	37.6	4	381.844	1.5
387.361	2.305	46	21	SS	1	19.12	0	21.99	4	389.694	1.5
395.961	2.219	47	19	SS	1	28.48	0	29.91	4	398.196	1.5
400.795	2.732	48	16	LL	2	19.29	0	28.94	2	403.544	1.5
407.859	2.544	49	60	SS	1	6.45	2	7.1	6	410.428	1.5
413.044	2.282	50	38	LL	2	32.44	2	40.55	4	415.344	1.5
422.311	3.088	51	22	SS	1	18.4	0	23	4	425.428	1.5
429.894	1.452	52	18	SS	1	5.78	0	5.95	4	431.378	1.5
436.961	2.489	53	37	SS	1	17.36	2	19.96	4	439.478	1.5
444.361	3.213	54	12	LL	2	21.96	0	24.16	2	447.596	1.5
452.194	1.739	55	42	SS	1	9.5	2	9.79	4	453.944	1.5
458.794	2.683	56	6	LL	2	10.5	0	13.13	2	461.494	1.5
467.878	4.713	57	68	LL	2	25.55	4	28.11	6	472.611	1.5
479.011	2.799	58	11	SS	1	24.85	0	26.09	2	481.844	1.5
486.978	2.084	59	15	LL	2	16.47	0	22.24	2	489.094	1.5
495.078	1.701	60	9	SS	1	22.32	0	22.54	2	496.796	1.5
502.311	1.84	61	58	SS	1	12.69	2	13.07	6	504.178	1.5
508.644	4.018	62	78	LL	2	18.61	4	23.27	6	512.678	1.5
523.978	1.614	63	3	SS	1	10.51	0	11.04	2	525.62	1.5
530.211	2.77	64	71	LL	2	10.98	4	14.83	6	533.011	1.5
539.728	1.8	65	2	SS	1	24.28	0	25	2	541.561	1.5
545.196	2.285	66	33	SS	1	25.56	2	25.82	4	547.496	1.5
556.728	4.905	67	80	LL	2	9.39	4	14.08	6	561.661	1.5
565.211	2.91	68	61	SS	1	18.24	2	20.97	6	568.145	1.5
571.761	3.145	69	64	LL	2	26.95	2	40.42	6	574.928	1.5
579.761	2.052	70	53	SS	1	35.19	2	40.46	6	581.845	1.5
585.828	1.617	71	76	SS	1	22.92	4	25.21	6	587.478	1.5
592.595	2.72	72	69	SS	1	22.62	4	26.01	6	595.329	1.5
599.478	2.036	73	25	SS	1	9.89	0	9.99	4	601.528	1.5
606.028	2.642	74	23	SS	1	6.11	0	8.25	4	608.695	1.5
613.79	4.207	75	32	SS	1	11.53	0	17.29	4	618.028	1.5
624.678	2.798	76	10	LL	2	21.66	0	22.31	2	627.511	1.5
635.478	3.326	77	1	SS	1	37.69	0	38.07	2	638.831	1.5
642.261	2.167	78	26	SS	1	38.48	0	39.63	4	644.446	1.5
649.778	2.082	79	17	SS	1	22.32	0	22.55	4	651.878	1.5
655.111	2.091	80	45	LL	2	36.8	2	42.32	4	657.228	1.5
