onset	duration	trial	trial_id	choice	choice_bin	magnitude_sooner	delay_sooner	magnitude_later	delay_later	onset_choice_fb	duration_choice_fb
15.051	1.848	1	59	SS	1	11.17	2	11.73	6	16.918	1.5
22.551	2.717	2	35	LL	2	20.14	2	21.15	4	25.296	1.5
31.218	3.018	3	65	SS	1	13.22	4	13.35	6	34.268	1.5
37.034	2.142	4	57	SS	1	28.25	2	28.53	6	39.201	1.5
44.434	2.457	5	3	LL	2	10.51	0	11.04	2	46.918	1.5
58.318	2.348	6	80	LL	2	9.39	4	14.08	6	60.684	1.5
66.234	2.641	7	22	SS	1	18.4	0	23	4	68.901	1.5
73.834	2.174	8	18	SS	1	5.78	0	5.95	4	76.034	1.5
81.084	1.864	9	54	LL	2	14.88	2	18.61	6	82.968	1.5
87.834	1.904	10	55	LL	2	29.45	2	39.75	6	89.768	1.5
92.951	2.097	11	60	SS	1	6.45	2	7.1	6	95.084	1.5
99.734	1.834	12	33	SS	1	25.56	2	25.82	4	101.601	1.5
105.602	1.71	13	48	LL	2	22.77	2	34.16	4	107.335	1.5
110.918	2.734	14	2	SS	1	24.28	0	25	2	113.668	1.5
116.684	1.997	15	47	LL	2	20.07	2	27.1	4	118.701	1.5
125.535	2.011	16	66	SS	1	11.96	4	12.32	6	127.568	1.50000000000001
132.668	1.836	17	10	SS	1	21.66	0	22.31	2	134.534	1.5
139.701	2.316	18	21	LL	2	19.12	0	21.99	4	142.051	1.5
146.101	2	19	78	LL	2	18.61	4	23.27	6	148.135	1.5
159.418	1.722	20	41	SS	1	11.65	2	11.77	4	161.168	1.5
165.451	1.552	21	64	LL	2	26.95	2	40.42	6	167.018	1.5
173.185	1.436	22	16	LL	2	19.29	0	28.94	2	174.651	1.5
177.718	1.753	23	67	SS	1	6.26	4	6.57	6	179.501	1.5
183.601	1.74	24	25	SS	1	9.89	0	9.99	4	185.368	1.5
188.635	2.115	25	50	LL	2	20.53	2	21.14	6	190.785	1.5
194.418	2.13	26	8	LL	2	14.49	0	21.74	2	196.585	1.5
203.319	1.969	27	14	LL	2	27.84	0	34.8	2	205.302	1.5
208.918	1.683	28	74	SS	1	13.42	4	13.82	6	210.618	1.5
219.351	2.16	29	30	LL	2	25.92	0	32.4	4	221.535	1.5
229.568	1.823	30	46	LL	2	30.77	2	38.46	4	231.418	1.5
234.175	2.445	31	51	SS	1	37.85	2	39.74	6	236.651	1.5
240.685	2.214	32	17	SS	1	22.32	0	22.55	4	242.935	1.5
247.168	1.82	33	28	SS	1	6.41	0	7.05	4	249.018	1.5
255.535	2.068	34	39	LL	2	14.56	2	19.66	4	257.618	1.5
264.049	2.19	35	23	LL	2	6.11	0	8.25	4	266.268	1.5
273.935	2.349	36	4	SS	1	13.42	0	14.77	2	276.311	1.5
283.568	1.92	37	15	LL	2	16.47	0	22.24	2	285.518	1.5
294.001	2.405	38	24	LL	2	11.37	0	17.06	4	296.435	1.5
301.886	1.614	39	71	LL	2	10.98	4	14.83	6	303.519	1.5
310.051	2.695	40	7	LL	2	19.45	0	26.26	2	312.768	1.5
317.335	2.093	41	5	LL	2	32.79	0	37.71	2	319.451	1.5
323.635	1.778	42	44	SS	1	22.39	2	24.62	4	325.435	1.5
329.168	2.07	43	26	SS	1	38.48	0	39.63	4	331.268	1.5
341.535	1.65	44	12	SS	1	21.96	0	24.16	2	343.218	1.5
348.985	2.235	45	69	LL	2	22.62	4	26.01	6	351.236	1.5
362.418	2.056	46	32	LL	2	11.53	0	17.29	4	364.501	1.5
372.185	1.549	47	79	LL	2	14.58	4	19.68	6	373.768	1.5
377.618	2.226	48	37	SS	1	17.36	2	19.96	4	379.868	1.5
383.435	2.159	49	36	SS	1	18.11	2	19.92	4	385.618	1.5
389.335	1.99	50	42	SS	1	9.5	2	9.79	4	391.351	1.5
394.001	1.846	51	31	LL	2	23.44	0	31.64	4	395.885	1.5
407.118	1.894	52	62	LL	2	25.3	2	31.63	6	409.035	1.5
414.601	1.858	53	13	SS	1	16.21	0	18.64	2	416.485	1.5
425.985	2.196	54	19	SS	1	28.48	0	29.91	4	428.201	1.5
432.368	2.027	55	70	LL	2	25.9	4	32.37	6	434.418	1.5
437.051	1.63	56	29	LL	2	32.7	0	37.6	4	438.718	1.5
443.785	1.981	57	76	LL	2	22.92	4	25.21	6	445.801	1.5
451.785	2.06	58	52	SS	1	30.66	2	33.73	6	453.868	1.5
457.685	2.114	59	11	SS	1	24.85	0	26.09	2	459.818	1.5
463.468	1.311	60	45	LL	2	36.8	2	42.32	4	464.801	1.5
468.352	1.84	61	72	LL	2	29.27	4	43.91	6	470.218	1.5
473.135	1.495	62	75	SS	1	20.18	4	21.19	6	474.651	1.5
478.718	1.821	63	73	SS	1	9.59	4	9.68	6	480.568	1.5
486.685	1.89	64	43	LL	2	24.99	2	26.24	4	488.601	1.5
492.801	1.397	65	34	SS	1	7.42	2	7.64	4	494.235	1.5
497.92	1.774	66	20	LL	2	30.4	0	33.44	4	499.719	1.5
504.335	1.935	67	63	LL	2	25.61	2	34.57	6	506.285	1.5
509.468	1.498	68	9	SS	1	22.32	0	22.54	2	510.985	1.5
513.901	4.398	69	68	LL	2	25.55	4	28.11	6	518.318	1.5
522.068	1.428	70	38	LL	2	32.44	2	40.55	4	523.518	1.5
528.635	1.988	71	1	SS	1	37.69	0	38.07	2	530.651	1.5
534.368	1.787	72	27	SS	1	22.78	0	23.92	4	536.185	1.5
540.535	2.413	73	56	LL	2	26.96	2	40.44	6	542.985	1.5
549.036	2.068	74	40	LL	2	12.44	2	18.66	4	551.118	1.5
562.368	1.977	75	58	SS	1	12.69	2	13.07	6	564.368	1.5
576.185	2.096	76	61	SS	1	18.24	2	20.97	6	578.302	1.5
582.268	2.503	77	77	SS	1	25.13	4	28.9	6	584.802	1.5
597.086	2.152	78	49	SS	1	23.7	2	23.94	6	599.252	1.5
605.368	2.071	79	53	LL	2	35.19	2	40.46	6	607.468	1.5
614.78	2	80	6	LL	2	10.5	0	13.13	2	616.802	1.5
