onset	duration	balloon_number	balloon_idx	response	pumps	pumps_demean_all	pumps_demean_type	balloon_type	balloon_outcome	balloon_maxpumps	balloon_colour	balloon_payoff_cumulative	balloon_payoff_total	onset_explosion	duration_explosion
4.061	8.394	1	1	pump	5	-4.65625	-4.09090909090909	exponential	cashout	16	red	0.01	0.29	NA	NA
14.278	0.423	1	2	pump	5	-3.65625	-3.09090909090909	exponential	cashout	16	red	0.0428709385014517	0.29	NA	NA
16.511	0.309	1	3	pump	5	-2.65625	-2.09090909090909	exponential	cashout	16	red	0.100451085663051	0.29	NA	NA
18.377	0.33	1	4	pump	5	-1.65625	-1.09090909090909	exponential	cashout	16	red	0.183791736799526	0.29	NA	NA
20.094	0.892	1	5	pump	5	-0.65625	-0.0909090909090908	exponential	cashout	16	red	0.293654735772005	0.29	NA	NA
22.411	0.502	1	6	cashout	5	NA	NA	exponential	cashout	16	red	0.430643231586474	0.29	NA	NA
36.044	0.464	2	1	pump	5	-4.65625	-2.81818181818182	linear	cashout	8	blue	0.1	0.5	NA	NA
37.678	0.316	2	2	pump	5	-3.65625	-1.81818181818182	linear	cashout	8	blue	0.2	0.5	NA	NA
39.194	0.355	2	3	pump	5	-2.65625	-0.818181818181818	linear	cashout	8	blue	0.3	0.5	NA	NA
40.794	0.47	2	4	pump	5	-1.65625	0.181818181818182	linear	cashout	8	blue	0.4	0.5	NA	NA
42.728	0.654	2	5	pump	5	-0.65625	1.18181818181818	linear	cashout	8	blue	0.5	0.5	NA	NA
45.211	1.25	2	6	cashout	5	NA	NA	linear	cashout	8	blue	0.6	0.5	NA	NA
52.461	0.645	3	1	pump	9	-4.65625	-7.3	control	control	9	grey	0	0	NA	NA
54.994	0.229	3	2	pump	9	-3.65625	-6.3	control	control	9	grey	0	0	NA	NA
57.078	0.305	3	3	pump	9	-2.65625	-5.3	control	control	9	grey	0	0	NA	NA
59.33	0.353	3	4	pump	9	-1.65625	-4.3	control	control	9	grey	0	0	NA	NA
60.863	0.371	3	5	pump	9	-0.65625	-3.3	control	control	9	grey	0	0	NA	NA
63.195	0.304	3	6	pump	9	0.34375	-2.3	control	control	9	grey	0	0	NA	NA
65.294	0.315	3	7	pump	9	1.34375	-1.3	control	control	9	grey	0	0	NA	NA
66.878	0.392	3	8	pump	9	2.34375	-0.300000000000001	control	control	9	grey	0	0	NA	NA
69.111	0.255	3	9	pump	9	3.34375	0.699999999999999	control	control	9	grey	0	0	NA	NA
73.594	14.417	4	1	pump	14	-4.65625	-7.3	control	control	14	grey	0	0	NA	NA
89.644	0.373	4	2	pump	14	-3.65625	-6.3	control	control	14	grey	0	0	NA	NA
91.378	0.291	4	3	pump	14	-2.65625	-5.3	control	control	14	grey	0	0	NA	NA
93.661	0.279	4	4	pump	14	-1.65625	-4.3	control	control	14	grey	0	0	NA	NA
95.778	0.245	4	5	pump	14	-0.65625	-3.3	control	control	14	grey	0	0	NA	NA
97.878	0.26	4	6	pump	14	0.34375	-2.3	control	control	14	grey	0	0	NA	NA
100.078	0.287	4	7	pump	14	1.34375	-1.3	control	control	14	grey	0	0	NA	NA
102.078	0.297	4	8	pump	14	2.34375	-0.300000000000001	control	control	14	grey	0	0	NA	NA
104.161	0.331	4	9	pump	14	3.34375	0.699999999999999	control	control	14	grey	0	0	NA	NA
106.378	0.309	4	10	pump	14	4.34375	1.7	control	control	14	grey	0	0	NA	NA
108.228	0.321	4	11	pump	14	5.34375	2.7	control	control	14	grey	0	0	NA	NA
110.446	0.307	4	12	pump	14	6.34375	3.7	control	control	14	grey	0	0	NA	NA
112.012	0.465	4	13	pump	14	7.34375	4.7	control	control	14	grey	0	0	NA	NA
114.045	0.433	4	14	pump	14	8.34375	5.7	control	control	14	grey	0	0	NA	NA
120.811	0.485	5	1	pump	2	-4.65625	-4.09090909090909	exponential	explosion	2	red	0.01	0	NA	NA
122.361	0.315	5	2	pump	2	NA	NA	exponential	explosion	2	red	0.0428709385014517	0	123.761	2
127.928	0.473	6	1	pump	1	NA	NA	linear	explosion	1	blue	0.1	0	129.873	2
139.628	0.416	7	1	pump	4	-4.65625	-2.81818181818182	linear	cashout	14	blue	0.1	0.4	NA	NA
141.644	0.309	7	2	pump	4	-3.65625	-1.81818181818182	linear	cashout	14	blue	0.2	0.4	NA	NA
143.311	0.687	7	3	pump	4	-2.65625	-0.818181818181818	linear	cashout	14	blue	0.3	0.4	NA	NA
145.744	1.485	7	4	pump	4	-1.65625	0.181818181818182	linear	cashout	14	blue	0.4	0.4	NA	NA
148.628	0.443	7	5	cashout	4	NA	NA	linear	cashout	14	blue	0.5	0.4	NA	NA
154.361	0.529	8	1	pump	5	-4.65625	-4.09090909090909	exponential	cashout	13	red	0.01	0.29	NA	NA
156.611	0.339	8	2	pump	5	-3.65625	-3.09090909090909	exponential	cashout	13	red	0.0428709385014517	0.29	NA	NA
158.88	0.286	8	3	pump	5	-2.65625	-2.09090909090909	exponential	cashout	13	red	0.100451085663051	0.29	NA	NA
161.112	0.658	8	4	pump	5	-1.65625	-1.09090909090909	exponential	cashout	13	red	0.183791736799526	0.29	NA	NA
163.411	1.086	8	5	pump	5	-0.65625	-0.0909090909090908	exponential	cashout	13	red	0.293654735772005	0.29	NA	NA
165.844	0.526	8	6	cashout	5	NA	NA	exponential	cashout	13	red	0.430643231586474	0.29	NA	NA
177.361	0.421	9	1	pump	9	-4.65625	-7.3	control	control	9	grey	0	0	NA	NA
179.161	0.372	9	2	pump	9	-3.65625	-6.3	control	control	9	grey	0	0	NA	NA
181.561	0.282	9	3	pump	9	-2.65625	-5.3	control	control	9	grey	0	0	NA	NA
183.711	0.323	9	4	pump	9	-1.65625	-4.3	control	control	9	grey	0	0	NA	NA
185.445	0.413	9	5	pump	9	-0.65625	-3.3	control	control	9	grey	0	0	NA	NA
187.278	0.463	9	6	pump	9	0.34375	-2.3	control	control	9	grey	0	0	NA	NA
189.511	0.571	9	7	pump	9	1.34375	-1.3	control	control	9	grey	0	0	NA	NA
191.845	0.297	9	8	pump	9	2.34375	-0.300000000000001	control	control	9	grey	0	0	NA	NA
193.728	0.329	9	9	pump	9	3.34375	0.699999999999999	control	control	9	grey	0	0	NA	NA
197.028	0.843	10	1	pump	4	-4.65625	-2.81818181818182	linear	explosion	4	blue	0.1	0	NA	NA
199.878	0.304	10	2	pump	4	-3.65625	-1.81818181818182	linear	explosion	4	blue	0.2	0	NA	NA
202.028	0.308	10	3	pump	4	-2.65625	-0.818181818181818	linear	explosion	4	blue	0.3	0	NA	NA
204.131	0.358	10	4	pump	4	NA	NA	linear	explosion	4	blue	0.4	0	205.811	2
210.012	0.48	11	1	pump	2	-4.65625	-7.3	control	control	2	grey	0	0	NA	NA
212.195	0.252	11	2	pump	2	-3.65625	-6.3	control	control	2	grey	0	0	NA	NA
216.66	1.203	12	1	pump	5	-4.65625	-4.09090909090909	exponential	cashout	13	red	0.01	0.29	NA	NA
219.445	0.573	12	2	pump	5	-3.65625	-3.09090909090909	exponential	cashout	13	red	0.0428709385014517	0.29	NA	NA
222.045	0.787	12	3	pump	5	-2.65625	-2.09090909090909	exponential	cashout	13	red	0.100451085663051	0.29	NA	NA
224.861	1.01	12	4	pump	5	-1.65625	-1.09090909090909	exponential	cashout	13	red	0.183791736799526	0.29	NA	NA
227.245	0.781	12	5	pump	5	-0.65625	-0.0909090909090908	exponential	cashout	13	red	0.293654735772005	0.29	NA	NA
229.278	0.893	12	6	cashout	5	NA	NA	exponential	cashout	13	red	0.430643231586474	0.29	NA	NA
240.469	0.494	13	1	pump	1	NA	NA	linear	explosion	1	blue	0.1	0	242.628	2
251.128	0.682	14	1	pump	7	-4.65625	-7.3	control	control	7	grey	0	0	NA	NA
253.811	0.998	14	2	pump	7	-3.65625	-6.3	control	control	7	grey	0	0	NA	NA
256.545	0.773	14	3	pump	7	-2.65625	-5.3	control	control	7	grey	0	0	NA	NA
258.829	0.527	14	4	pump	7	-1.65625	-4.3	control	control	7	grey	0	0	NA	NA
260.879	0.61	14	5	pump	7	-0.65625	-3.3	control	control	7	grey	0	0	NA	NA
262.611	0.792	14	6	pump	7	0.34375	-2.3	control	control	7	grey	0	0	NA	NA
264.945	0.4	14	7	pump	7	1.34375	-1.3	control	control	7	grey	0	0	NA	NA
269.695	0.621	15	1	pump	3	-4.65625	-4.09090909090909	exponential	explosion	3	red	0.01	0	NA	NA
271.445	0.44	15	2	pump	3	-3.65625	-3.09090909090909	exponential	explosion	3	red	0.0428709385014517	0	NA	NA
273.595	0.351	15	3	pump	3	NA	NA	exponential	explosion	3	red	0.100451085663051	0	275.861	2
280.661	0.473	16	1	pump	4	-4.65625	-4.09090909090909	exponential	cashout	13	red	0.01	0.18	NA	NA
282.711	0.349	16	2	pump	4	-3.65625	-3.09090909090909	exponential	cashout	13	red	0.0428709385014517	0.18	NA	NA
285.011	0.331	16	3	pump	4	-2.65625	-2.09090909090909	exponential	cashout	13	red	0.100451085663051	0.18	NA	NA
287.228	0.988	16	4	pump	4	-1.65625	-1.09090909090909	exponential	cashout	13	red	0.183791736799526	0.18	NA	NA
290.085	0.939	16	5	cashout	4	NA	NA	exponential	cashout	13	red	0.293654735772005	0.18	NA	NA
295.628	0.807	17	1	pump	8	-4.65625	-7.3	control	control	8	grey	0	0	NA	NA
298.445	0.339	17	2	pump	8	-3.65625	-6.3	control	control	8	grey	0	0	NA	NA
300.711	0.299	17	3	pump	8	-2.65625	-5.3	control	control	8	grey	0	0	NA	NA
302.878	0.298	17	4	pump	8	-1.65625	-4.3	control	control	8	grey	0	0	NA	NA
304.478	0.436	17	5	pump	8	-0.65625	-3.3	control	control	8	grey	0	0	NA	NA
306.263	0.465	17	6	pump	8	0.34375	-2.3	control	control	8	grey	0	0	NA	NA
308.696	0.287	17	7	pump	8	1.34375	-1.3	control	control	8	grey	0	0	NA	NA
310.612	0.31	17	8	pump	8	2.34375	-0.300000000000001	control	control	8	grey	0	0	NA	NA
320.012	0.431	18	1	pump	4	-4.65625	-2.81818181818182	linear	cashout	7	blue	0.1	0.4	NA	NA
322.045	0.302	18	2	pump	4	-3.65625	-1.81818181818182	linear	cashout	7	blue	0.2	0.4	NA	NA
324.245	0.332	18	3	pump	4	-2.65625	-0.818181818181818	linear	cashout	7	blue	0.3	0.4	NA	NA
326.245	0.627	18	4	pump	4	-1.65625	0.181818181818182	linear	cashout	7	blue	0.4	0.4	NA	NA
328.662	0.499	18	5	cashout	4	NA	NA	linear	cashout	7	blue	0.5	0.4	NA	NA
341.928	0.626	19	1	pump	6	-4.65625	-4.09090909090909	exponential	cashout	9	red	0.01	0.43	NA	NA
343.917	0.3	19	2	pump	6	-3.65625	-3.09090909090909	exponential	cashout	9	red	0.0428709385014517	0.43	NA	NA
345.745	0.291	19	3	pump	6	-2.65625	-2.09090909090909	exponential	cashout	9	red	0.100451085663051	0.43	NA	NA
347.295	0.286	19	4	pump	6	-1.65625	-1.09090909090909	exponential	cashout	9	red	0.183791736799526	0.43	NA	NA
349.215	0.621	19	5	pump	6	-0.65625	-0.0909090909090908	exponential	cashout	9	red	0.293654735772005	0.43	NA	NA
351.362	0.516	19	6	pump	6	0.34375	0.909090909090909	exponential	cashout	9	red	0.430643231586474	0.43	NA	NA
353.412	0.909	19	7	cashout	6	NA	NA	exponential	cashout	9	red	0.595258881579143	0.43	NA	NA
362.945	0.667	20	1	pump	2	-4.65625	-7.3	control	control	2	grey	0	0	NA	NA
365.212	0.273	20	2	pump	2	-3.65625	-6.3	control	control	2	grey	0	0	NA	NA
370.295	0.484	21	1	pump	1	NA	NA	linear	explosion	1	blue	0.1	0	372.091	2
376.362	0.463	22	1	pump	12	-4.65625	-7.3	control	control	12	grey	0	0	NA	NA
378.245	0.318	22	2	pump	12	-3.65625	-6.3	control	control	12	grey	0	0	NA	NA
380.112	0.28	22	3	pump	12	-2.65625	-5.3	control	control	12	grey	0	0	NA	NA
382.388	0.319	22	4	pump	12	-1.65625	-4.3	control	control	12	grey	0	0	NA	NA
383.912	0.506	22	5	pump	12	-0.65625	-3.3	control	control	12	grey	0	0	NA	NA
386.478	0.287	22	6	pump	12	0.34375	-2.3	control	control	12	grey	0	0	NA	NA
388.762	0.258	22	7	pump	12	1.34375	-1.3	control	control	12	grey	0	0	NA	NA
390.895	0.298	22	8	pump	12	2.34375	-0.300000000000001	control	control	12	grey	0	0	NA	NA
393.228	0.339	22	9	pump	12	3.34375	0.699999999999999	control	control	12	grey	0	0	NA	NA
394.945	0.588	22	10	pump	12	4.34375	1.7	control	control	12	grey	0	0	NA	NA
396.912	0.976	22	11	pump	12	5.34375	2.7	control	control	12	grey	0	0	NA	NA
399.378	0.621	22	12	pump	12	6.34375	3.7	control	control	12	grey	0	0	NA	NA
402.728	0.793	23	1	pump	6	-4.65625	-4.09090909090909	exponential	cashout	9	red	0.01	0.43	NA	NA
405.28	0.287	23	2	pump	6	-3.65625	-3.09090909090909	exponential	cashout	9	red	0.0428709385014517	0.43	NA	NA
407.329	0.298	23	3	pump	6	-2.65625	-2.09090909090909	exponential	cashout	9	red	0.100451085663051	0.43	NA	NA
409.462	0.293	23	4	pump	6	-1.65625	-1.09090909090909	exponential	cashout	9	red	0.183791736799526	0.43	NA	NA
411.362	0.602	23	5	pump	6	-0.65625	-0.0909090909090908	exponential	cashout	9	red	0.293654735772005	0.43	NA	NA
413.128	1.014	23	6	pump	6	0.34375	0.909090909090909	exponential	cashout	9	red	0.430643231586474	0.43	NA	NA
415.578	0.512	23	7	cashout	6	NA	NA	exponential	cashout	9	red	0.595258881579143	0.43	NA	NA
423.145	0.563	24	1	pump	4	-4.65625	-2.81818181818182	linear	cashout	5	blue	0.1	0.4	NA	NA
425.728	0.326	24	2	pump	4	-3.65625	-1.81818181818182	linear	cashout	5	blue	0.2	0.4	NA	NA
427.395	0.396	24	3	pump	4	-2.65625	-0.818181818181818	linear	cashout	5	blue	0.3	0.4	NA	NA
429.262	0.551	24	4	pump	4	-1.65625	0.181818181818182	linear	cashout	5	blue	0.4	0.4	NA	NA
431.795	0.485	24	5	cashout	4	NA	NA	linear	cashout	5	blue	0.5	0.4	NA	NA
439.195	0.389	25	1	pump	9	-4.65625	-4.09090909090909	exponential	cashout	15	red	0.01	1.01	NA	NA
440.995	0.293	25	2	pump	9	-3.65625	-3.09090909090909	exponential	cashout	15	red	0.0428709385014517	1.01	NA	NA
443.362	0.257	25	3	pump	9	-2.65625	-2.09090909090909	exponential	cashout	15	red	0.100451085663051	1.01	NA	NA
444.712	0.512	25	4	pump	9	-1.65625	-1.09090909090909	exponential	cashout	15	red	0.183791736799526	1.01	NA	NA
447.145	0.288	25	5	pump	9	-0.65625	-0.0909090909090908	exponential	cashout	15	red	0.293654735772005	1.01	NA	NA
449.128	0.267	25	6	pump	9	0.34375	0.909090909090909	exponential	cashout	15	red	0.430643231586474	1.01	NA	NA
450.512	0.527	25	7	pump	9	1.34375	1.90909090909091	exponential	cashout	15	red	0.595258881579143	1.01	NA	NA
452.381	0.484	25	8	pump	9	2.34375	2.90909090909091	exponential	cashout	15	red	0.787932424540747	1.01	NA	NA
454.547	1.392	25	9	pump	9	3.34375	3.90909090909091	exponential	cashout	15	red	1.00904206108857	1.01	NA	NA
457.446	0.602	25	10	cashout	9	NA	NA	exponential	cashout	15	red	1.25892541179417	1.01	NA	NA
463.778	0.801	26	1	pump	5	-4.65625	-2.81818181818182	linear	cashout	13	blue	0.1	0.5	NA	NA
465.645	0.365	26	2	pump	5	-3.65625	-1.81818181818182	linear	cashout	13	blue	0.2	0.5	NA	NA
467.645	0.944	26	3	pump	5	-2.65625	-0.818181818181818	linear	cashout	13	blue	0.3	0.5	NA	NA
469.978	0.403	26	4	pump	5	-1.65625	0.181818181818182	linear	cashout	13	blue	0.4	0.5	NA	NA
472.079	0.854	26	5	pump	5	-0.65625	1.18181818181818	linear	cashout	13	blue	0.5	0.5	NA	NA
474.412	0.505	26	6	cashout	5	NA	NA	linear	cashout	13	blue	0.6	0.5	NA	NA
483.479	0.412	27	1	pump	4	-4.65625	-7.3	control	control	4	grey	0	0	NA	NA
485.779	0.383	27	2	pump	4	-3.65625	-6.3	control	control	4	grey	0	0	NA	NA
487.729	0.376	27	3	pump	4	-2.65625	-5.3	control	control	4	grey	0	0	NA	NA
490.012	0.454	27	4	pump	4	-1.65625	-4.3	control	control	4	grey	0	0	NA	NA
493.462	0.845	28	1	pump	10	-4.65625	-2.81818181818182	linear	cashout	13	blue	0.1	1	NA	NA
496.262	0.366	28	2	pump	10	-3.65625	-1.81818181818182	linear	cashout	13	blue	0.2	1	NA	NA
498.545	0.3	28	3	pump	10	-2.65625	-0.818181818181818	linear	cashout	13	blue	0.3	1	NA	NA
500.029	0.386	28	4	pump	10	-1.65625	0.181818181818182	linear	cashout	13	blue	0.4	1	NA	NA
502.329	0.385	28	5	pump	10	-0.65625	1.18181818181818	linear	cashout	13	blue	0.5	1	NA	NA
504.68	0.385	28	6	pump	10	0.34375	2.18181818181818	linear	cashout	13	blue	0.6	1	NA	NA
506.279	1.171	28	7	pump	10	1.34375	3.18181818181818	linear	cashout	13	blue	0.7	1	NA	NA
509.145	0.971	28	8	pump	10	2.34375	4.18181818181818	linear	cashout	13	blue	0.8	1	NA	NA
511.495	1.228	28	9	pump	10	3.34375	5.18181818181818	linear	cashout	13	blue	0.9	1	NA	NA
514.129	2.42	28	10	pump	10	4.34375	6.18181818181818	linear	cashout	13	blue	1	1	NA	NA
518.245	0.624	28	11	cashout	10	NA	NA	linear	cashout	13	blue	1.1	1	NA	NA
525.979	0.589	29	1	pump	16	-4.65625	-7.3	control	control	16	grey	0	0	NA	NA
527.879	0.356	29	2	pump	16	-3.65625	-6.3	control	control	16	grey	0	0	NA	NA
530.095	0.317	29	3	pump	16	-2.65625	-5.3	control	control	16	grey	0	0	NA	NA
531.712	0.424	29	4	pump	16	-1.65625	-4.3	control	control	16	grey	0	0	NA	NA
533.245	0.309	29	5	pump	16	-0.65625	-3.3	control	control	16	grey	0	0	NA	NA
534.962	0.291	29	6	pump	16	0.34375	-2.3	control	control	16	grey	0	0	NA	NA
536.945	0.448	29	7	pump	16	1.34375	-1.3	control	control	16	grey	0	0	NA	NA
538.845	0.406	29	8	pump	16	2.34375	-0.300000000000001	control	control	16	grey	0	0	NA	NA
540.751	0.616	29	9	pump	16	3.34375	0.699999999999999	control	control	16	grey	0	0	NA	NA
542.529	0.305	29	10	pump	16	4.34375	1.7	control	control	16	grey	0	0	NA	NA
544.529	0.455	29	11	pump	16	5.34375	2.7	control	control	16	grey	0	0	NA	NA
546.882	0.306	29	12	pump	16	6.34375	3.7	control	control	16	grey	0	0	NA	NA
548.945	0.313	29	13	pump	16	7.34375	4.7	control	control	16	grey	0	0	NA	NA
550.445	0.754	29	14	pump	16	8.34375	5.7	control	control	16	grey	0	0	NA	NA
553.097	0.65	29	15	pump	16	9.34375	6.7	control	control	16	grey	0	0	NA	NA
555.662	0.546	29	16	pump	16	10.34375	7.7	control	control	16	grey	0	0	NA	NA
564.595	0.571	30	1	pump	9	-4.65625	-4.09090909090909	exponential	cashout	12	red	0.01	1.01	NA	NA
566.912	0.425	30	2	pump	9	-3.65625	-3.09090909090909	exponential	cashout	12	red	0.0428709385014517	1.01	NA	NA
568.895	0.551	30	3	pump	9	-2.65625	-2.09090909090909	exponential	cashout	12	red	0.100451085663051	1.01	NA	NA
570.979	0.346	30	4	pump	9	-1.65625	-1.09090909090909	exponential	cashout	12	red	0.183791736799526	1.01	NA	NA
573.045	0.93	30	5	pump	9	-0.65625	-0.0909090909090908	exponential	cashout	12	red	0.293654735772005	1.01	NA	NA
575.362	0.526	30	6	pump	9	0.34375	0.909090909090909	exponential	cashout	12	red	0.430643231586474	1.01	NA	NA
577.779	1.012	30	7	pump	9	1.34375	1.90909090909091	exponential	cashout	12	red	0.595258881579143	1.01	NA	NA
580.545	0.746	30	8	pump	9	2.34375	2.90909090909091	exponential	cashout	12	red	0.787932424540747	1.01	NA	NA
583.279	1.801	30	9	pump	9	3.34375	3.90909090909091	exponential	cashout	12	red	1.00904206108857	1.01	NA	NA
586.685	0.51	30	10	cashout	9	NA	NA	exponential	cashout	12	red	1.25892541179417	1.01	NA	NA
596.996	0.383	31	1	pump	2	-4.65625	-4.09090909090909	exponential	explosion	2	red	0.01	0	NA	NA
598.479	0.548	31	2	pump	2	NA	NA	exponential	explosion	2	red	0.0428709385014517	0	600.779	2
604.713	0.539	32	1	pump	3	-4.65625	-2.81818181818182	linear	cashout	8	blue	0.1	0.3	NA	NA
606.345	0.776	32	2	pump	3	-3.65625	-1.81818181818182	linear	cashout	8	blue	0.2	0.3	NA	NA
608.462	0.346	32	3	pump	3	-2.65625	-0.818181818181818	linear	cashout	8	blue	0.3	0.3	NA	NA
610.595	0.647	32	4	cashout	3	NA	NA	linear	cashout	8	blue	0.4	0.3	NA	NA
