onset	duration	trial	trial_id	choice	choice_bin	magnitude_sooner	delay_sooner	magnitude_later	delay_later	onset_choice_fb	duration_choice_fb
13.383	1.453	1	16	LL	2	19.29	0	28.94	2	14.867	1.5
18.133	1.385	2	70	LL	2	25.9	4	32.37	6	19.55	1.5
26.133	2.043	3	57	SS	1	28.25	2	28.53	6	28.217	1.5
33.352	2.238	4	49	SS	1	23.7	2	23.94	6	35.618	1.5
39.65	2.014	5	75	LL	2	20.18	4	21.19	6	41.683	1.5
46.467	1.223	6	8	LL	2	14.49	0	21.74	2	47.717	1.5
56.417	1.212	7	55	LL	2	29.45	2	39.75	6	57.65	1.5
61.992	1.159	8	64	LL	2	26.95	2	40.42	6	63.183	1.50000000000001
67.083	1.017	9	38	LL	2	32.44	2	40.55	4	68.133	1.5
76.667	1.275	10	80	LL	2	9.39	4	14.08	6	77.967	1.5
81.119	1.032	11	63	LL	2	25.61	2	34.57	6	82.169	1.5
85.201	2.393	12	67	SS	1	6.26	4	6.57	6	87.617	1.5
91.95	1.496	13	37	LL	2	17.36	2	19.96	4	93.467	1.5
96.75	1.343	14	23	LL	2	6.11	0	8.25	4	98.117	1.5
102.083	1.641	15	46	LL	2	30.77	2	38.46	4	103.75	1.5
109.683	1.657	16	19	LL	2	28.48	0	29.91	4	111.367	1.5
115.95	1.639	17	60	LL	2	6.45	2	7.1	6	117.617	1.5
121	2.99	18	65	LL	2	13.22	4	13.35	6	124.017	1.5
128.52	2.903	19	73	LL	2	9.59	4	9.68	6	131.45	1.5
140.667	1.368	20	54	LL	2	14.88	2	18.61	6	142.05	1.5
146.584	1.421	21	51	LL	2	37.85	2	39.74	6	148.034	1.5
154.217	1.141	22	4	LL	2	13.42	0	14.77	2	155.384	1.5
159.684	1.472	23	6	LL	2	10.5	0	13.13	2	161.184	1.5
171.55	1.187	24	14	LL	2	27.84	0	34.8	2	172.767	1.5
177.567	1.297	25	66	LL	2	11.96	4	12.32	6	178.9	1.5
182.134	1.34	26	5	LL	2	32.79	0	37.71	2	183.501	1.5
190.767	1.149	27	53	LL	2	35.19	2	40.46	6	191.934	1.5
201.267	1.228	28	40	LL	2	12.44	2	18.66	4	202.517	1.5
207.95	1.15	29	11	LL	2	24.85	0	26.09	2	209.134	1.5
216.517	1.96	30	18	LL	2	5.78	0	5.95	4	218.5	1.5
222.084	1.399	31	20	LL	2	30.4	0	33.44	4	223.517	1.5
227.37	2.547	32	9	SS	1	22.32	0	22.54	2	229.935	1.5
235.234	1.893	33	44	LL	2	22.39	2	24.62	4	237.15	1.5
242.317	1.664	34	36	LL	2	18.11	2	19.92	4	244	1.5
250.4	1.71	35	58	LL	2	12.69	2	13.07	6	252.134	1.5
256.884	1.241	36	29	LL	2	32.7	0	37.6	4	258.15	1.5
264.774	1.456	37	12	LL	2	21.96	0	24.16	2	266.267	1.5
269.617	1.317	38	56	LL	2	26.96	2	40.44	6	270.967	1.5
283.034	1.411	39	61	LL	2	18.24	2	20.97	6	284.467	1.5
290.084	2.092	40	3	SS	1	10.51	0	11.04	2	292.2	1.5
301.25	2.511	41	10	SS	1	21.66	0	22.31	2	303.784	1.5
315.767	2.518	42	41	LL	2	11.65	2	11.77	4	318.317	1.5
321.967	2.099	43	31	LL	2	23.44	0	31.64	4	324.101	1.5
334.517	1.438	44	48	LL	2	22.77	2	34.16	4	335.967	1.5
345.284	2.365	45	26	SS	1	38.48	0	39.63	4	347.667	1.5
350.417	2.411	46	32	LL	2	11.53	0	17.29	4	352.851	1.5
356.601	1.944	47	30	LL	2	25.92	0	32.4	4	358.567	1.5
363.701	1.512	48	62	LL	2	25.3	2	31.63	6	365.251	1.5
370.738	1.573	49	52	LL	2	30.66	2	33.73	6	372.351	1.5
376.286	2.459	50	74	LL	2	13.42	4	13.82	6	378.768	1.5
383.517	2.26	51	1	SS	1	37.69	0	38.07	2	385.801	1.5
396.351	1.931	52	76	LL	2	22.92	4	25.21	6	398.301	1.5
403.967	2.18	53	42	LL	2	9.5	2	9.79	4	406.167	1.5
413.217	3.443	54	28	SS	1	6.41	0	7.05	4	416.684	1.5
427.251	2.754	55	21	LL	2	19.12	0	21.99	4	430.018	1.5
438.517	2.325	56	17	SS	1	22.32	0	22.55	4	440.867	1.5
444.613	1.697	57	33	LL	2	25.56	2	25.82	4	446.334	1.5
456.884	1.738	58	34	LL	2	7.42	2	7.64	4	458.651	1.5
462.684	1.689	59	35	LL	2	20.14	2	21.15	4	464.401	1.5
468.484	1.235	60	78	LL	2	18.61	4	23.27	6	469.751	1.5
476.502	1.951	61	22	LL	2	18.4	0	23	4	478.468	1.5
489.668	2.269	62	15	LL	2	16.47	0	22.24	2	491.967	1.5
496.017	1.583	63	72	LL	2	29.27	4	43.91	6	497.634	1.5
504.551	1.937	64	13	LL	2	16.21	0	18.64	2	506.518	1.5
511.868	1.352	65	45	LL	2	36.8	2	42.32	4	513.251	1.5
520.284	1.405	66	69	LL	2	22.62	4	26.01	6	521.718	1.5
524.336	1.775	67	25	SS	1	9.89	0	9.99	4	526.135	1.5
528.884	2.608	68	2	SS	1	24.28	0	25	2	531.518	1.5
535.918	1.53	69	50	LL	2	20.53	2	21.14	6	537.468	1.5
541.268	0.963	70	77	LL	2	25.13	4	28.9	6	542.251	1.5
548.701	1.124	71	59	LL	2	11.17	2	11.73	6	549.851	1.5
555.201	0.99	72	71	LL	2	10.98	4	14.83	6	556.218	1.5
561.568	1.125	73	39	LL	2	14.56	2	19.66	4	562.718	1.5
567.601	1.354	74	68	LL	2	25.55	4	28.11	6	568.984	1.5
573.336	1.481	75	47	LL	2	20.07	2	27.1	4	574.836	1.5
580.701	0.945	76	43	LL	2	24.99	2	26.24	4	581.668	1.5
593.118	1.407	77	24	LL	2	11.37	0	17.06	4	594.551	1.5
598.818	1.545	78	7	LL	2	19.45	0	26.26	2	600.384	1.5
609.218	1.309	79	79	LL	2	14.58	4	19.68	6	610.551	1.5
615.834	1.022	80	27	LL	2	22.78	0	23.92	4	616.884	1.5
