onset	duration	balloon_number	balloon_idx	response	pumps	pumps_demean_all	pumps_demean_type	balloon_type	balloon_outcome	balloon_maxpumps	balloon_colour	balloon_payoff_cumulative	balloon_payoff_total	onset_explosion	duration_explosion
4.065	2.375	1	1	pump	3	-4.48387096774194	-3.90909090909091	linear	cashout	8	red	0.1	0.3	NA	NA
7.599	0.961	1	2	pump	3	-3.48387096774194	-2.90909090909091	linear	cashout	8	red	0.2	0.3	NA	NA
10.365	1.413	1	3	pump	3	-2.48387096774194	-1.90909090909091	linear	cashout	8	red	0.3	0.3	NA	NA
13.232	1.028	1	4	cashout	3	NA	NA	linear	cashout	8	red	0.4	0.3	NA	NA
20.515	0.727	2	1	pump	3	-4.48387096774194	-4.3	exponential	cashout	10	blue	0.01	0.1	NA	NA
23.049	1.003	2	2	pump	3	-3.48387096774194	-3.3	exponential	cashout	10	blue	0.0428709385014517	0.1	NA	NA
25.715	1.817	2	3	pump	3	-2.48387096774194	-2.3	exponential	cashout	10	blue	0.100451085663051	0.1	NA	NA
29.165	1.48	2	4	cashout	3	NA	NA	exponential	cashout	10	blue	0.183791736799526	0.1	NA	NA
39.215	0.737	3	1	pump	4	-4.48387096774194	-5.3	control	control	4	grey	0	0	NA	NA
41.965	0.586	3	2	pump	4	-3.48387096774194	-4.3	control	control	4	grey	0	0	NA	NA
43.664	0.814	3	3	pump	4	-2.48387096774194	-3.3	control	control	4	grey	0	0	NA	NA
45.715	1.005	3	4	pump	4	-1.48387096774194	-2.3	control	control	4	grey	0	0	NA	NA
50.015	0.94	4	1	pump	7	-4.48387096774194	-3.90909090909091	linear	cashout	13	red	0.1	0.7	NA	NA
53.015	0.873	4	2	pump	7	-3.48387096774194	-2.90909090909091	linear	cashout	13	red	0.2	0.7	NA	NA
55.515	1.14	4	3	pump	7	-2.48387096774194	-1.90909090909091	linear	cashout	13	red	0.3	0.7	NA	NA
58.015	1.249	4	4	pump	7	-1.48387096774194	-0.909090909090909	linear	cashout	13	red	0.4	0.7	NA	NA
60.649	1.078	4	5	pump	7	-0.483870967741935	0.0909090909090908	linear	cashout	13	red	0.5	0.7	NA	NA
63.382	1.388	4	6	pump	7	0.516129032258065	1.09090909090909	linear	cashout	13	red	0.6	0.7	NA	NA
66.265	1.035	4	7	pump	7	1.51612903225806	2.09090909090909	linear	cashout	13	red	0.7	0.7	NA	NA
68.532	1.197	4	8	cashout	7	NA	NA	linear	cashout	13	red	0.8	0.7	NA	NA
77.282	0.907	5	1	pump	10	-4.48387096774194	-5.3	control	control	10	grey	0	0	NA	NA
79.615	0.636	5	2	pump	10	-3.48387096774194	-4.3	control	control	10	grey	0	0	NA	NA
81.801	0.895	5	3	pump	10	-2.48387096774194	-3.3	control	control	10	grey	0	0	NA	NA
83.9	0.456	5	4	pump	10	-1.48387096774194	-2.3	control	control	10	grey	0	0	NA	NA
86.133	0.774	5	5	pump	10	-0.483870967741935	-1.3	control	control	10	grey	0	0	NA	NA
88.115	0.435	5	6	pump	10	0.516129032258065	-0.3	control	control	10	grey	0	0	NA	NA
89.915	0.583	5	7	pump	10	1.51612903225806	0.7	control	control	10	grey	0	0	NA	NA
91.665	0.678	5	8	pump	10	2.51612903225806	1.7	control	control	10	grey	0	0	NA	NA
93.849	0.726	5	9	pump	10	3.51612903225806	2.7	control	control	10	grey	0	0	NA	NA
96.215	0.645	5	10	pump	10	4.51612903225806	3.7	control	control	10	grey	0	0	NA	NA
99.282	0.767	6	1	pump	8	-4.48387096774194	-4.3	exponential	cashout	12	blue	0.01	0.79	NA	NA
101.482	0.723	6	2	pump	8	-3.48387096774194	-3.3	exponential	cashout	12	blue	0.0428709385014517	0.79	NA	NA
103.449	0.897	6	3	pump	8	-2.48387096774194	-2.3	exponential	cashout	12	blue	0.100451085663051	0.79	NA	NA
106.332	0.833	6	4	pump	8	-1.48387096774194	-1.3	exponential	cashout	12	blue	0.183791736799526	0.79	NA	NA
108.965	0.768	6	5	pump	8	-0.483870967741935	-0.3	exponential	cashout	12	blue	0.293654735772005	0.79	NA	NA
111.299	0.721	6	6	pump	8	0.516129032258065	0.7	exponential	cashout	12	blue	0.430643231586474	0.79	NA	NA
113.449	1.004	6	7	pump	8	1.51612903225806	1.7	exponential	cashout	12	blue	0.595258881579143	0.79	NA	NA
116.049	1.102	6	8	pump	8	2.51612903225806	2.7	exponential	cashout	12	blue	0.787932424540747	0.79	NA	NA
119.032	0.785	6	9	cashout	8	NA	NA	exponential	cashout	12	blue	1.00904206108857	0.79	NA	NA
125.532	0.694	7	1	pump	9	-4.48387096774194	-5.3	control	control	9	grey	0	0	NA	NA
127.465	0.604	7	2	pump	9	-3.48387096774194	-4.3	control	control	9	grey	0	0	NA	NA
129.732	0.477	7	3	pump	9	-2.48387096774194	-3.3	control	control	9	grey	0	0	NA	NA
131.417	0.733	7	4	pump	9	-1.48387096774194	-2.3	control	control	9	grey	0	0	NA	NA
133.583	0.449	7	5	pump	9	-0.483870967741935	-1.3	control	control	9	grey	0	0	NA	NA
135.983	0.724	7	6	pump	9	0.516129032258065	-0.3	control	control	9	grey	0	0	NA	NA
138.749	0.48	7	7	pump	9	1.51612903225806	0.7	control	control	9	grey	0	0	NA	NA
140.399	0.405	7	8	pump	9	2.51612903225806	1.7	control	control	9	grey	0	0	NA	NA
142.049	0.46	7	9	pump	9	3.51612903225806	2.7	control	control	9	grey	0	0	NA	NA
151.382	0.557	8	1	pump	9	-4.48387096774194	-4.3	exponential	explosion	9	blue	0.01	0	NA	NA
153.965	0.448	8	2	pump	9	-3.48387096774194	-3.3	exponential	explosion	9	blue	0.0428709385014517	0	NA	NA
155.549	0.897	8	3	pump	9	-2.48387096774194	-2.3	exponential	explosion	9	blue	0.100451085663051	0	NA	NA
157.865	0.755	8	4	pump	9	-1.48387096774194	-1.3	exponential	explosion	9	blue	0.183791736799526	0	NA	NA
160.699	0.726	8	5	pump	9	-0.483870967741935	-0.3	exponential	explosion	9	blue	0.293654735772005	0	NA	NA
163.482	0.705	8	6	pump	9	0.516129032258065	0.7	exponential	explosion	9	blue	0.430643231586474	0	NA	NA
165.682	0.963	8	7	pump	9	1.51612903225806	1.7	exponential	explosion	9	blue	0.595258881579143	0	NA	NA
167.865	1.092	8	8	pump	9	2.51612903225806	2.7	exponential	explosion	9	blue	0.787932424540747	0	NA	NA
170.449	0.891	8	9	pump	9	NA	NA	exponential	explosion	9	blue	1.00904206108857	0	173.037	2
184.066	0.657	9	1	pump	9	-4.48387096774194	-3.90909090909091	linear	explosion	9	red	0.1	0	NA	NA
185.916	0.823	9	2	pump	9	-3.48387096774194	-2.90909090909091	linear	explosion	9	red	0.2	0	NA	NA
188.565	0.873	9	3	pump	9	-2.48387096774194	-1.90909090909091	linear	explosion	9	red	0.3	0	NA	NA
191.032	0.649	9	4	pump	9	-1.48387096774194	-0.909090909090909	linear	explosion	9	red	0.4	0	NA	NA
193.282	0.671	9	5	pump	9	-0.483870967741935	0.0909090909090908	linear	explosion	9	red	0.5	0	NA	NA
195.299	0.668	9	6	pump	9	0.516129032258065	1.09090909090909	linear	explosion	9	red	0.6	0	NA	NA
197.049	0.787	9	7	pump	9	1.51612903225806	2.09090909090909	linear	explosion	9	red	0.7	0	NA	NA
199.499	0.845	9	8	pump	9	2.51612903225806	3.09090909090909	linear	explosion	9	red	0.8	0	NA	NA
201.649	0.979	9	9	pump	9	NA	NA	linear	explosion	9	red	0.9	0	203.782	2
210.332	0.583	10	1	pump	1	NA	NA	linear	explosion	1	red	0.1	0	212.182	2
223.815	0.827	11	1	pump	3	-4.48387096774194	-4.3	exponential	cashout	10	blue	0.01	0.1	NA	NA
225.749	0.663	11	2	pump	3	-3.48387096774194	-3.3	exponential	cashout	10	blue	0.0428709385014517	0.1	NA	NA
227.765	0.826	11	3	pump	3	-2.48387096774194	-2.3	exponential	cashout	10	blue	0.100451085663051	0.1	NA	NA
230.301	0.73	11	4	cashout	3	NA	NA	exponential	cashout	10	blue	0.183791736799526	0.1	NA	NA
241.182	0.662	12	1	pump	1	-4.48387096774194	-5.3	control	control	1	grey	0	0	NA	NA
246.282	0.704	13	1	pump	1	-4.48387096774194	-5.3	control	control	1	grey	0	0	NA	NA
251.249	0.702	14	1	pump	4	-4.48387096774194	-4.3	exponential	cashout	7	blue	0.01	0.18	NA	NA
253.132	0.948	14	2	pump	4	-3.48387096774194	-3.3	exponential	cashout	7	blue	0.0428709385014517	0.18	NA	NA
255.149	0.871	14	3	pump	4	-2.48387096774194	-2.3	exponential	cashout	7	blue	0.100451085663051	0.18	NA	NA
257.515	0.889	14	4	pump	4	-1.48387096774194	-1.3	exponential	cashout	7	blue	0.183791736799526	0.18	NA	NA
260.099	0.833	14	5	cashout	4	NA	NA	exponential	cashout	7	blue	0.293654735772005	0.18	NA	NA
267.449	0.685	15	1	pump	6	-4.48387096774194	-3.90909090909091	linear	cashout	7	red	0.1	0.6	NA	NA
270.082	0.466	15	2	pump	6	-3.48387096774194	-2.90909090909091	linear	cashout	7	red	0.2	0.6	NA	NA
272.299	0.783	15	3	pump	6	-2.48387096774194	-1.90909090909091	linear	cashout	7	red	0.3	0.6	NA	NA
274.899	0.599	15	4	pump	6	-1.48387096774194	-0.909090909090909	linear	cashout	7	red	0.4	0.6	NA	NA
276.866	0.773	15	5	pump	6	-0.483870967741935	0.0909090909090908	linear	cashout	7	red	0.5	0.6	NA	NA
279.684	0.749	15	6	pump	6	0.516129032258065	1.09090909090909	linear	cashout	7	red	0.6	0.6	NA	NA
282.433	0.813	15	7	cashout	6	NA	NA	linear	cashout	7	red	0.7	0.6	NA	NA
290.149	0.841	16	1	pump	7	-4.48387096774194	-3.90909090909091	linear	cashout	16	red	0.1	0.7	NA	NA
292.099	0.831	16	2	pump	7	-3.48387096774194	-2.90909090909091	linear	cashout	16	red	0.2	0.7	NA	NA
294.549	0.543	16	3	pump	7	-2.48387096774194	-1.90909090909091	linear	cashout	16	red	0.3	0.7	NA	NA
296.216	0.662	16	4	pump	7	-1.48387096774194	-0.909090909090909	linear	cashout	16	red	0.4	0.7	NA	NA
298.682	0.773	16	5	pump	7	-0.483870967741935	0.0909090909090908	linear	cashout	16	red	0.5	0.7	NA	NA
300.549	0.971	16	6	pump	7	0.516129032258065	1.09090909090909	linear	cashout	16	red	0.6	0.7	NA	NA
303.116	1.086	16	7	pump	7	1.51612903225806	2.09090909090909	linear	cashout	16	red	0.7	0.7	NA	NA
305.399	0.782	16	8	cashout	7	NA	NA	linear	cashout	16	red	0.8	0.7	NA	NA
319.982	0.763	17	1	pump	5	-4.48387096774194	-4.3	exponential	cashout	13	blue	0.01	0.29	NA	NA
321.982	0.93	17	2	pump	5	-3.48387096774194	-3.3	exponential	cashout	13	blue	0.0428709385014517	0.29	NA	NA
324.166	1.127	17	3	pump	5	-2.48387096774194	-2.3	exponential	cashout	13	blue	0.100451085663051	0.29	NA	NA
326.932	1.093	17	4	pump	5	-1.48387096774194	-1.3	exponential	cashout	13	blue	0.183791736799526	0.29	NA	NA
329.15	0.704	17	5	pump	5	-0.483870967741935	-0.3	exponential	cashout	13	blue	0.293654735772005	0.29	NA	NA
331.7	1.769	17	6	cashout	5	NA	NA	exponential	cashout	13	blue	0.430643231586474	0.29	NA	NA
339.582	0.747	18	1	pump	7	-4.48387096774194	-5.3	control	control	7	grey	0	0	NA	NA
341.932	0.799	18	2	pump	7	-3.48387096774194	-4.3	control	control	7	grey	0	0	NA	NA
344.499	0.649	18	3	pump	7	-2.48387096774194	-3.3	control	control	7	grey	0	0	NA	NA
346.532	0.823	18	4	pump	7	-1.48387096774194	-2.3	control	control	7	grey	0	0	NA	NA
349.116	0.715	18	5	pump	7	-0.483870967741935	-1.3	control	control	7	grey	0	0	NA	NA
351.232	0.729	18	6	pump	7	0.516129032258065	-0.3	control	control	7	grey	0	0	NA	NA
353.766	0.36	18	7	pump	7	1.51612903225806	0.7	control	control	7	grey	0	0	NA	NA
357.016	0.61	19	1	pump	2	-4.48387096774194	-3.90909090909091	linear	explosion	2	red	0.1	0	NA	NA
359.499	0.643	19	2	pump	2	NA	NA	linear	explosion	2	red	0.2	0	361.232	2
371.799	0.619	20	1	pump	4	-4.48387096774194	-4.3	exponential	cashout	14	blue	0.01	0.18	NA	NA
374.116	0.572	20	2	pump	4	-3.48387096774194	-3.3	exponential	cashout	14	blue	0.0428709385014517	0.18	NA	NA
376.551	0.709	20	3	pump	4	-2.48387096774194	-2.3	exponential	cashout	14	blue	0.100451085663051	0.18	NA	NA
378.384	0.765	20	4	pump	4	-1.48387096774194	-1.3	exponential	cashout	14	blue	0.183791736799526	0.18	NA	NA
380.916	0.793	20	5	cashout	4	NA	NA	exponential	cashout	14	blue	0.293654735772005	0.18	NA	NA
386.949	0.792	21	1	pump	7	-4.48387096774194	-5.3	control	control	7	grey	0	0	NA	NA
389.149	0.736	21	2	pump	7	-3.48387096774194	-4.3	control	control	7	grey	0	0	NA	NA
391.916	0.51	21	3	pump	7	-2.48387096774194	-3.3	control	control	7	grey	0	0	NA	NA
393.666	0.378	21	4	pump	7	-1.48387096774194	-2.3	control	control	7	grey	0	0	NA	NA
395.532	0.436	21	5	pump	7	-0.483870967741935	-1.3	control	control	7	grey	0	0	NA	NA
397.149	0.83	21	6	pump	7	0.516129032258065	-0.3	control	control	7	grey	0	0	NA	NA
399.732	0.514	21	7	pump	7	1.51612903225806	0.7	control	control	7	grey	0	0	NA	NA
409.299	0.605	22	1	pump	5	-4.48387096774194	-3.90909090909091	linear	cashout	7	red	0.1	0.5	NA	NA
411.032	0.74	22	2	pump	5	-3.48387096774194	-2.90909090909091	linear	cashout	7	red	0.2	0.5	NA	NA
413.566	0.716	22	3	pump	5	-2.48387096774194	-1.90909090909091	linear	cashout	7	red	0.3	0.5	NA	NA
415.549	0.938	22	4	pump	5	-1.48387096774194	-0.909090909090909	linear	cashout	7	red	0.4	0.5	NA	NA
418.349	0.764	22	5	pump	5	-0.483870967741935	0.0909090909090908	linear	cashout	7	red	0.5	0.5	NA	NA
420.932	1.202	22	6	cashout	5	NA	NA	linear	cashout	7	red	0.6	0.5	NA	NA
431.266	0.534	23	1	pump	7	-4.48387096774194	-5.3	control	control	7	grey	0	0	NA	NA
433.749	0.402	23	2	pump	7	-3.48387096774194	-4.3	control	control	7	grey	0	0	NA	NA
436.066	0.346	23	3	pump	7	-2.48387096774194	-3.3	control	control	7	grey	0	0	NA	NA
437.599	0.47	23	4	pump	7	-1.48387096774194	-2.3	control	control	7	grey	0	0	NA	NA
439.282	0.6	23	5	pump	7	-0.483870967741935	-1.3	control	control	7	grey	0	0	NA	NA
441.132	0.923	23	6	pump	7	0.516129032258065	-0.3	control	control	7	grey	0	0	NA	NA
443.149	0.743	23	7	pump	7	1.51612903225806	0.7	control	control	7	grey	0	0	NA	NA
446.699	0.742	24	1	pump	6	-4.48387096774194	-4.3	exponential	cashout	14	blue	0.01	0.43	NA	NA
449.282	0.875	24	2	pump	6	-3.48387096774194	-3.3	exponential	cashout	14	blue	0.0428709385014517	0.43	NA	NA
452.066	0.685	24	3	pump	6	-2.48387096774194	-2.3	exponential	cashout	14	blue	0.100451085663051	0.43	NA	NA
454.049	1.123	24	4	pump	6	-1.48387096774194	-1.3	exponential	cashout	14	blue	0.183791736799526	0.43	NA	NA
456.332	0.835	24	5	pump	6	-0.483870967741935	-0.3	exponential	cashout	14	blue	0.293654735772005	0.43	NA	NA
458.399	1.19	24	6	pump	6	0.516129032258065	0.7	exponential	cashout	14	blue	0.430643231586474	0.43	NA	NA
460.899	0.76	24	7	cashout	6	NA	NA	exponential	cashout	14	blue	0.595258881579143	0.43	NA	NA
472.699	0.706	25	1	pump	6	-4.48387096774194	-4.3	exponential	cashout	12	blue	0.01	0.43	NA	NA
474.616	0.612	25	2	pump	6	-3.48387096774194	-3.3	exponential	cashout	12	blue	0.0428709385014517	0.43	NA	NA
477.167	0.757	25	3	pump	6	-2.48387096774194	-2.3	exponential	cashout	12	blue	0.100451085663051	0.43	NA	NA
479.866	0.761	25	4	pump	6	-1.48387096774194	-1.3	exponential	cashout	12	blue	0.183791736799526	0.43	NA	NA
481.816	0.967	25	5	pump	6	-0.483870967741935	-0.3	exponential	cashout	12	blue	0.293654735772005	0.43	NA	NA
484.282	0.904	25	6	pump	6	0.516129032258065	0.7	exponential	cashout	12	blue	0.430643231586474	0.43	NA	NA
486.999	1.009	25	7	cashout	6	NA	NA	exponential	cashout	12	blue	0.595258881579143	0.43	NA	NA
495.699	0.698	26	1	pump	10	-4.48387096774194	-5.3	control	control	10	grey	0	0	NA	NA
498.232	0.533	26	2	pump	10	-3.48387096774194	-4.3	control	control	10	grey	0	0	NA	NA
499.932	0.432	26	3	pump	10	-2.48387096774194	-3.3	control	control	10	grey	0	0	NA	NA
502.232	0.652	26	4	pump	10	-1.48387096774194	-2.3	control	control	10	grey	0	0	NA	NA
504.449	0.664	26	5	pump	10	-0.483870967741935	-1.3	control	control	10	grey	0	0	NA	NA
506.349	0.65	26	6	pump	10	0.516129032258065	-0.3	control	control	10	grey	0	0	NA	NA
508.516	0.708	26	7	pump	10	1.51612903225806	0.7	control	control	10	grey	0	0	NA	NA
510.966	0.95	26	8	pump	10	2.51612903225806	1.7	control	control	10	grey	0	0	NA	NA
513.266	0.605	26	9	pump	10	3.51612903225806	2.7	control	control	10	grey	0	0	NA	NA
515.732	0.573	26	10	pump	10	4.51612903225806	3.7	control	control	10	grey	0	0	NA	NA
520.366	1.049	27	1	pump	5	-4.48387096774194	-3.90909090909091	linear	explosion	5	red	0.1	0	NA	NA
523.282	0.548	27	2	pump	5	-3.48387096774194	-2.90909090909091	linear	explosion	5	red	0.2	0	NA	NA
525.767	0.762	27	3	pump	5	-2.48387096774194	-1.90909090909091	linear	explosion	5	red	0.3	0	NA	NA
528.183	0.638	27	4	pump	5	-1.48387096774194	-0.909090909090909	linear	explosion	5	red	0.4	0	NA	NA
530.716	0.688	27	5	pump	5	NA	NA	linear	explosion	5	red	0.5	0	533.081	2
543.766	0.604	28	1	pump	7	-4.48387096774194	-5.3	control	control	7	grey	0	0	NA	NA
546.249	0.389	28	2	pump	7	-3.48387096774194	-4.3	control	control	7	grey	0	0	NA	NA
547.776	0.356	28	3	pump	7	-2.48387096774194	-3.3	control	control	7	grey	0	0	NA	NA
549.849	0.377	28	4	pump	7	-1.48387096774194	-2.3	control	control	7	grey	0	0	NA	NA
552.116	0.431	28	5	pump	7	-0.483870967741935	-1.3	control	control	7	grey	0	0	NA	NA
554.049	0.445	28	6	pump	7	0.516129032258065	-0.3	control	control	7	grey	0	0	NA	NA
556.182	0.412	28	7	pump	7	1.51612903225806	0.7	control	control	7	grey	0	0	NA	NA
563.432	0.705	29	1	pump	5	-4.48387096774194	-4.3	exponential	cashout	14	blue	0.01	0.29	NA	NA
565.682	0.487	29	2	pump	5	-3.48387096774194	-3.3	exponential	cashout	14	blue	0.0428709385014517	0.29	NA	NA
567.953	0.705	29	3	pump	5	-2.48387096774194	-2.3	exponential	cashout	14	blue	0.100451085663051	0.29	NA	NA
570.099	1.035	29	4	pump	5	-1.48387096774194	-1.3	exponential	cashout	14	blue	0.183791736799526	0.29	NA	NA
572.499	1.01	29	5	pump	5	-0.483870967741935	-0.3	exponential	cashout	14	blue	0.293654735772005	0.29	NA	NA
574.901	1.224	29	6	cashout	5	NA	NA	exponential	cashout	14	blue	0.430643231586474	0.29	NA	NA
582.582	0.88	30	1	pump	3	-4.48387096774194	-3.90909090909091	linear	explosion	3	red	0.1	0	NA	NA
584.549	0.684	30	2	pump	3	-3.48387096774194	-2.90909090909091	linear	explosion	3	red	0.2	0	NA	NA
586.966	0.786	30	3	pump	3	NA	NA	linear	explosion	3	red	0.3	0	589.799	2
595.199	0.642	31	1	pump	6	-4.48387096774194	-3.90909090909091	linear	cashout	13	red	0.1	0.6	NA	NA
597.449	0.529	31	2	pump	6	-3.48387096774194	-2.90909090909091	linear	cashout	13	red	0.2	0.6	NA	NA
599.582	0.717	31	3	pump	6	-2.48387096774194	-1.90909090909091	linear	cashout	13	red	0.3	0.6	NA	NA
601.899	0.793	31	4	pump	6	-1.48387096774194	-0.909090909090909	linear	cashout	13	red	0.4	0.6	NA	NA
604.299	0.7	31	5	pump	6	-0.483870967741935	0.0909090909090908	linear	cashout	13	red	0.5	0.6	NA	NA
606.432	0.837	31	6	pump	6	0.516129032258065	1.09090909090909	linear	cashout	13	red	0.6	0.6	NA	NA
608.982	0.932	31	7	cashout	6	NA	NA	linear	cashout	13	red	0.7	0.6	NA	NA
