onset	duration	trial	trial_id	choice	choice_bin	magnitude_sooner	delay_sooner	magnitude_later	delay_later	onset_choice_fb	duration_choice_fb
13.613	1.748	1	65	SS	1	13.22	4	13.35	6	15.388	1.5
18.63	1.542	2	74	SS	1	13.42	4	13.82	6	20.197	1.5
23.713	1.606	3	14	LL	2	27.84	0	34.8	2	25.347	1.5
28.883	1.626	4	48	LL	2	22.77	2	34.16	4	30.547	1.5
34.748	1.564	5	67	SS	1	6.26	4	6.57	6	36.331	1.5
41.563	1.44	6	13	SS	1	16.21	0	18.64	2	43.03	1.5
47.38	1.807	7	21	SS	1	19.12	0	21.99	4	49.213	1.5
55.997	2.682	8	52	SS	1	30.66	2	33.73	6	58.707	1.5
66.03	1.54	9	69	LL	2	22.62	4	26.01	6	67.597	1.5
71.73	1.491	10	20	SS	1	30.4	0	33.44	4	73.247	1.5
78.73	2.157	11	31	LL	2	23.44	0	31.64	4	80.913	1.5
87.314	1.814	12	7	LL	2	19.45	0	26.26	2	89.147	1.5
98.763	1.91	13	33	SS	1	25.56	2	25.82	4	100.697	1.5
105.463	1.438	14	32	LL	2	11.53	0	17.29	4	106.93	1.5
110.48	1.342	15	66	SS	1	11.96	4	12.32	6	111.847	1.5
114.747	1.609	16	12	LL	2	21.96	0	24.16	2	116.38	1.5
126.113	1.51	17	57	SS	1	28.25	2	28.53	6	127.663	1.50000000000001
133.065	1.523	18	43	SS	1	24.99	2	26.24	4	134.614	1.5
137.43	1.423	19	19	SS	1	28.48	0	29.91	4	138.88	1.5
141.58	1.333	20	6	SS	1	10.5	0	13.13	2	142.93	1.5
152.463	1.907	21	5	LL	2	32.79	0	37.71	2	154.397	1.5
159.397	2.038	22	44	SS	1	22.39	2	24.62	4	161.463	1.5
167.547	2.677	23	61	SS	1	18.24	2	20.97	6	170.252	1.5
174.097	2.567	24	8	LL	2	14.49	0	21.74	2	176.697	1.5
181.048	2.217	25	62	LL	2	25.3	2	31.63	6	183.281	1.5
188.48	1.802	26	39	LL	2	14.56	2	19.66	4	190.297	1.5
194.697	1.322	27	18	SS	1	5.78	0	5.95	4	196.047	1.5
201.63	1.908	28	78	SS	1	18.61	4	23.27	6	203.563	1.5
213.33	1.596	29	9	SS	1	22.32	0	22.54	2	214.953	1.5
219.28	1.656	30	63	LL	2	25.61	2	34.57	6	220.963	1.5
226.03	1.711	31	24	LL	2	11.37	0	17.06	4	227.78	1.5
236.53	1.585	32	51	SS	1	37.85	2	39.74	6	238.13	1.5
243.28	2.287	33	68	SS	1	25.55	4	28.11	6	245.597	1.5
248.58	2.035	34	47	LL	2	20.07	2	27.1	4	250.647	1.5
258.513	1.888	35	38	LL	2	32.44	2	40.55	4	260.43	1.5
266.013	1.531	36	56	LL	2	26.96	2	40.44	6	267.58	1.5
272.647	1.478	37	71	SS	1	10.98	4	14.83	6	274.163	1.5
278.299	4.712	38	70	LL	2	25.9	4	32.37	6	283.03	1.5
289.03	1.922	39	59	SS	1	11.17	2	11.73	6	290.98	1.5
297.613	1.56	40	26	SS	1	38.48	0	39.63	4	299.197	1.5
307.18	2.312	41	46	LL	2	30.77	2	38.46	4	309.513	1.5
315.53	2.339	42	50	SS	1	20.53	2	21.14	6	317.897	1.5
322.563	2.164	43	2	SS	1	24.28	0	25	2	324.763	1.5
331.114	1.575	44	28	SS	1	6.41	0	7.05	4	332.713	1.5
338.113	1.872	45	40	LL	2	12.44	2	18.66	4	340.013	1.5
349.63	5	46	42	NA	NA	9.5	2	9.79	4	NA	NA
360.621	5	47	58	NA	NA	12.69	2	13.07	6	NA	NA
368.93	5	48	77	NA	NA	25.13	4	28.9	6	NA	NA
376.313	2.043	49	54	SS	1	14.88	2	18.61	6	378.381	1.5
381.114	1.729	50	80	LL	2	9.39	4	14.08	6	382.863	1.5
387.413	1.376	51	75	SS	1	20.18	4	21.19	6	388.813	1.5
393.963	1.552	52	16	LL	2	19.29	0	28.94	2	395.547	1.5
406.213	1.39	53	25	SS	1	9.89	0	9.99	4	407.63	1.5
418.213	1.431	54	41	SS	1	11.65	2	11.77	4	419.68	1.5
424.463	1.885	55	36	SS	1	18.11	2	19.92	4	426.365	1.5
432.43	1.76	56	29	LL	2	32.7	0	37.6	4	434.213	1.5
440.477	2.642	57	55	LL	2	29.45	2	39.75	6	443.147	1.5
448.58	2.527	58	4	SS	1	13.42	0	14.77	2	451.13	1.5
456.688	2.194	59	37	SS	1	17.36	2	19.96	4	458.913	1.5
468.947	2.234	60	3	SS	1	10.51	0	11.04	2	471.213	1.5
480.413	1.331	61	35	SS	1	20.14	2	21.15	4	481.763	1.5
487.263	1.677	62	22	LL	2	18.4	0	23	4	488.963	1.5
495.33	1.577	63	64	LL	2	26.95	2	40.42	6	496.93	1.5
500.147	1.773	64	79	LL	2	14.58	4	19.68	6	501.947	1.5
507.23	1.348	65	27	SS	1	22.78	0	23.92	4	508.613	1.5
516.747	1.381	66	11	SS	1	24.85	0	26.09	2	518.163	1.5
524.665	1.593	67	10	SS	1	21.66	0	22.31	2	526.281	1.5
532.146	2.01	68	23	SS	1	6.11	0	8.25	4	534.18	1.5
537.597	1.626	69	15	LL	2	16.47	0	22.24	2	539.247	1.5
542.546	1.217	70	1	SS	1	37.69	0	38.07	2	543.78	1.5
549.046	1.445	71	49	SS	1	23.7	2	23.94	6	550.513	1.5
556.413	2.378	72	30	LL	2	25.92	0	32.4	4	558.82	1.5
567.93	4.225	73	76	SS	1	22.92	4	25.21	6	572.196	1.5
578.413	1.652	74	17	SS	1	22.32	0	22.55	4	580.08	1.5
588.496	2.394	75	73	SS	1	9.59	4	9.68	6	590.913	1.5
598.696	3.821	76	60	SS	1	6.45	2	7.1	6	602.546	1.5
609.996	5	77	53	NA	NA	35.19	2	40.46	6	NA	NA
621.08	5	78	72	NA	NA	29.27	4	43.91	6	NA	NA
628.546	5	79	34	NA	NA	7.42	2	7.64	4	NA	NA
637.263	1.908	80	45	LL	2	36.8	2	42.32	4	639.196	1.5
