onset	duration	balloon_number	balloon_idx	response	pumps	pumps_demean_all	pumps_demean_type	balloon_type	balloon_outcome	balloon_maxpumps	balloon_colour	balloon_payoff_cumulative	balloon_payoff_total	onset_explosion	duration_explosion
4.059	0.877	1	1	pump	11	-5.34375	-8.45454545454546	control	control	11	grey	0	0	NA	NA
6.609	0.499	1	2	pump	11	-4.34375	-7.45454545454546	control	control	11	grey	0	0	NA	NA
8.209	0.37	1	3	pump	11	-3.34375	-6.45454545454546	control	control	11	grey	0	0	NA	NA
10.376	0.547	1	4	pump	11	-2.34375	-5.45454545454546	control	control	11	grey	0	0	NA	NA
12.694	0.261	1	5	pump	11	-1.34375	-4.45454545454546	control	control	11	grey	0	0	NA	NA
14.677	0.301	1	6	pump	11	-0.34375	-3.45454545454546	control	control	11	grey	0	0	NA	NA
16.976	0.352	1	7	pump	11	0.65625	-2.45454545454546	control	control	11	grey	0	0	NA	NA
18.492	0.55	1	8	pump	11	1.65625	-1.45454545454546	control	control	11	grey	0	0	NA	NA
20.826	0.331	1	9	pump	11	2.65625	-0.454545454545455	control	control	11	grey	0	0	NA	NA
22.826	0.282	1	10	pump	11	3.65625	0.545454545454545	control	control	11	grey	0	0	NA	NA
24.873	0.258	1	11	pump	11	4.65625	1.54545454545454	control	control	11	grey	0	0	NA	NA
28.626	0.348	2	1	pump	5	-5.34375	-4.3	exponential	cashout	16	blue	0.01	0.29	NA	NA
30.892	0.305	2	2	pump	5	-4.34375	-3.3	exponential	cashout	16	blue	0.0428709385014517	0.29	NA	NA
32.392	0.401	2	3	pump	5	-3.34375	-2.3	exponential	cashout	16	blue	0.100451085663051	0.29	NA	NA
34.042	0.389	2	4	pump	5	-2.34375	-1.3	exponential	cashout	16	blue	0.183791736799526	0.29	NA	NA
36.053	0.415	2	5	pump	5	-1.34375	-0.3	exponential	cashout	16	blue	0.293654735772005	0.29	NA	NA
37.709	0.753	2	6	cashout	5	NA	NA	exponential	cashout	16	blue	0.430643231586474	0.29	NA	NA
50.909	0.552	3	1	pump	3	-5.34375	-3.18181818181818	linear	explosion	3	red	0.1	0	NA	NA
53.342	0.491	3	2	pump	3	-4.34375	-2.18181818181818	linear	explosion	3	red	0.2	0	NA	NA
55.176	0.466	3	3	pump	3	NA	NA	linear	explosion	3	red	0.3	0	56.859	2
61.411	0.561	4	1	pump	6	-5.34375	-4.3	exponential	cashout	14	blue	0.01	0.43	NA	NA
63.91	0.388	4	2	pump	6	-4.34375	-3.3	exponential	cashout	14	blue	0.0428709385014517	0.43	NA	NA
65.476	0.536	4	3	pump	6	-3.34375	-2.3	exponential	cashout	14	blue	0.100451085663051	0.43	NA	NA
67.276	0.588	4	4	pump	6	-2.34375	-1.3	exponential	cashout	14	blue	0.183791736799526	0.43	NA	NA
69.109	0.4	4	5	pump	6	-1.34375	-0.3	exponential	cashout	14	blue	0.293654735772005	0.43	NA	NA
71.242	0.452	4	6	pump	6	-0.34375	0.7	exponential	cashout	14	blue	0.430643231586474	0.43	NA	NA
73.342	0.589	4	7	cashout	6	NA	NA	exponential	cashout	14	blue	0.595258881579143	0.43	NA	NA
78.826	0.723	5	1	pump	2	-5.34375	-8.45454545454546	control	control	2	grey	0	0	NA	NA
81.359	0.362	5	2	pump	2	-4.34375	-7.45454545454546	control	control	2	grey	0	0	NA	NA
86.409	0.562	6	1	pump	5	-5.34375	-3.18181818181818	linear	cashout	15	red	0.1	0.5	NA	NA
88.376	0.52	6	2	pump	5	-4.34375	-2.18181818181818	linear	cashout	15	red	0.2	0.5	NA	NA
90.276	0.349	6	3	pump	5	-3.34375	-1.18181818181818	linear	cashout	15	red	0.3	0.5	NA	NA
92.259	0.296	6	4	pump	5	-2.34375	-0.181818181818182	linear	cashout	15	red	0.4	0.5	NA	NA
94.192	0.252	6	5	pump	5	-1.34375	0.818181818181818	linear	cashout	15	red	0.5	0.5	NA	NA
96.109	0.431	6	6	cashout	5	NA	NA	linear	cashout	15	red	0.6	0.5	NA	NA
102.159	0.517	7	1	pump	6	-5.34375	-4.3	exponential	cashout	15	blue	0.01	0.43	NA	NA
103.996	0.24	7	2	pump	6	-4.34375	-3.3	exponential	cashout	15	blue	0.0428709385014517	0.43	NA	NA
106.276	0.257	7	3	pump	6	-3.34375	-2.3	exponential	cashout	15	blue	0.100451085663051	0.43	NA	NA
107.909	0.3	7	4	pump	6	-2.34375	-1.3	exponential	cashout	15	blue	0.183791736799526	0.43	NA	NA
109.711	0.347	7	5	pump	6	-1.34375	-0.3	exponential	cashout	15	blue	0.293654735772005	0.43	NA	NA
111.227	0.434	7	6	pump	6	-0.34375	0.7	exponential	cashout	15	blue	0.430643231586474	0.43	NA	NA
112.927	0.547	7	7	cashout	6	NA	NA	exponential	cashout	15	blue	0.595258881579143	0.43	NA	NA
119.676	0.761	8	1	pump	7	-5.34375	-8.45454545454546	control	control	7	grey	0	0	NA	NA
121.726	0.363	8	2	pump	7	-4.34375	-7.45454545454546	control	control	7	grey	0	0	NA	NA
123.809	0.304	8	3	pump	7	-3.34375	-6.45454545454546	control	control	7	grey	0	0	NA	NA
126.142	0.379	8	4	pump	7	-2.34375	-5.45454545454546	control	control	7	grey	0	0	NA	NA
128.409	0.282	8	5	pump	7	-1.34375	-4.45454545454546	control	control	7	grey	0	0	NA	NA
130.576	0.335	8	6	pump	7	-0.34375	-3.45454545454546	control	control	7	grey	0	0	NA	NA
132.342	0.359	8	7	pump	7	0.65625	-2.45454545454546	control	control	7	grey	0	0	NA	NA
142.209	0.492	9	1	pump	4	-5.34375	-3.18181818181818	linear	cashout	10	red	0.1	0.4	NA	NA
144.042	0.429	9	2	pump	4	-4.34375	-2.18181818181818	linear	cashout	10	red	0.2	0.4	NA	NA
146.159	0.323	9	3	pump	4	-3.34375	-1.18181818181818	linear	cashout	10	red	0.3	0.4	NA	NA
147.742	0.398	9	4	pump	4	-2.34375	-0.181818181818182	linear	cashout	10	red	0.4	0.4	NA	NA
150.059	0.833	9	5	cashout	4	NA	NA	linear	cashout	10	red	0.5	0.4	NA	NA
161.943	0.501	10	1	pump	7	-5.34375	-4.3	exponential	cashout	14	blue	0.01	0.6	NA	NA
164.276	0.301	10	2	pump	7	-4.34375	-3.3	exponential	cashout	14	blue	0.0428709385014517	0.6	NA	NA
166.459	0.329	10	3	pump	7	-3.34375	-2.3	exponential	cashout	14	blue	0.100451085663051	0.6	NA	NA
168.442	0.401	10	4	pump	7	-2.34375	-1.3	exponential	cashout	14	blue	0.183791736799526	0.6	NA	NA
170.44	0.404	10	5	pump	7	-1.34375	-0.3	exponential	cashout	14	blue	0.293654735772005	0.6	NA	NA
172.492	0.409	10	6	pump	7	-0.34375	0.7	exponential	cashout	14	blue	0.430643231586474	0.6	NA	NA
174.372	0.406	10	7	pump	7	0.65625	1.7	exponential	cashout	14	blue	0.595258881579143	0.6	NA	NA
175.942	0.612	10	8	cashout	7	NA	NA	exponential	cashout	14	blue	0.787932424540747	0.6	NA	NA
185.092	0.552	11	1	pump	14	-5.34375	-8.45454545454546	control	control	14	grey	0	0	NA	NA
187.626	0.342	11	2	pump	14	-4.34375	-7.45454545454546	control	control	14	grey	0	0	NA	NA
189.926	0.575	11	3	pump	14	-3.34375	-6.45454545454546	control	control	14	grey	0	0	NA	NA
192.492	0.319	11	4	pump	14	-2.34375	-5.45454545454546	control	control	14	grey	0	0	NA	NA
194.676	0.324	11	5	pump	14	-1.34375	-4.45454545454546	control	control	14	grey	0	0	NA	NA
196.942	0.283	11	6	pump	14	-0.34375	-3.45454545454546	control	control	14	grey	0	0	NA	NA
198.892	0.324	11	7	pump	14	0.65625	-2.45454545454546	control	control	14	grey	0	0	NA	NA
200.876	0.367	11	8	pump	14	1.65625	-1.45454545454546	control	control	14	grey	0	0	NA	NA
202.726	0.333	11	9	pump	14	2.65625	-0.454545454545455	control	control	14	grey	0	0	NA	NA
204.342	0.311	11	10	pump	14	3.65625	0.545454545454545	control	control	14	grey	0	0	NA	NA
206.359	0.335	11	11	pump	14	4.65625	1.54545454545454	control	control	14	grey	0	0	NA	NA
208.444	0.5	11	12	pump	14	5.65625	2.54545454545454	control	control	14	grey	0	0	NA	NA
210.81	0.202	11	13	pump	14	6.65625	3.54545454545454	control	control	14	grey	0	0	NA	NA
212.676	0.387	11	14	pump	14	7.65625	4.54545454545454	control	control	14	grey	0	0	NA	NA
218.226	0.493	12	1	pump	5	-5.34375	-3.18181818181818	linear	cashout	15	red	0.1	0.5	NA	NA
220.492	0.333	12	2	pump	5	-4.34375	-2.18181818181818	linear	cashout	15	red	0.2	0.5	NA	NA
222.509	0.279	12	3	pump	5	-3.34375	-1.18181818181818	linear	cashout	15	red	0.3	0.5	NA	NA
224.209	0.304	12	4	pump	5	-2.34375	-0.181818181818182	linear	cashout	15	red	0.4	0.5	NA	NA
225.609	0.317	12	5	pump	5	-1.34375	0.818181818181818	linear	cashout	15	red	0.5	0.5	NA	NA
227.626	0.517	12	6	cashout	5	NA	NA	linear	cashout	15	red	0.6	0.5	NA	NA
237.776	0.612	13	1	pump	15	-5.34375	-8.45454545454546	control	control	15	grey	0	0	NA	NA
239.559	0.365	13	2	pump	15	-4.34375	-7.45454545454546	control	control	15	grey	0	0	NA	NA
241.709	0.35	13	3	pump	15	-3.34375	-6.45454545454546	control	control	15	grey	0	0	NA	NA
243.459	0.398	13	4	pump	15	-2.34375	-5.45454545454546	control	control	15	grey	0	0	NA	NA
245.842	0.493	13	5	pump	15	-1.34375	-4.45454545454546	control	control	15	grey	0	0	NA	NA
248.326	0.435	13	6	pump	15	-0.34375	-3.45454545454546	control	control	15	grey	0	0	NA	NA
250.042	0.549	13	7	pump	15	0.65625	-2.45454545454546	control	control	15	grey	0	0	NA	NA
252.396	0.599	13	8	pump	15	1.65625	-1.45454545454546	control	control	15	grey	0	0	NA	NA
254.892	0.293	13	9	pump	15	2.65625	-0.454545454545455	control	control	15	grey	0	0	NA	NA
256.461	0.586	13	10	pump	15	3.65625	0.545454545454545	control	control	15	grey	0	0	NA	NA
258.527	0.346	13	11	pump	15	4.65625	1.54545454545454	control	control	15	grey	0	0	NA	NA
260.876	0.281	13	12	pump	15	5.65625	2.54545454545454	control	control	15	grey	0	0	NA	NA
262.426	0.359	13	13	pump	15	6.65625	3.54545454545454	control	control	15	grey	0	0	NA	NA
264.826	0.515	13	14	pump	15	7.65625	4.54545454545454	control	control	15	grey	0	0	NA	NA
266.992	0.251	13	15	pump	15	8.65625	5.54545454545454	control	control	15	grey	0	0	NA	NA
271.909	0.491	14	1	pump	6	-5.34375	-4.3	exponential	explosion	6	blue	0.01	0	NA	NA
273.892	0.303	14	2	pump	6	-4.34375	-3.3	exponential	explosion	6	blue	0.0428709385014517	0	NA	NA
276.159	0.324	14	3	pump	6	-3.34375	-2.3	exponential	explosion	6	blue	0.100451085663051	0	NA	NA
278.326	0.468	14	4	pump	6	-2.34375	-1.3	exponential	explosion	6	blue	0.183791736799526	0	NA	NA
280.226	0.421	14	5	pump	6	-1.34375	-0.3	exponential	explosion	6	blue	0.293654735772005	0	NA	NA
281.892	0.454	14	6	pump	6	NA	NA	exponential	explosion	6	blue	0.430643231586474	0	283.442	2
290.159	0.42	15	1	pump	5	-5.34375	-3.18181818181818	linear	explosion	5	red	0.1	0	NA	NA
292.126	0.279	15	2	pump	5	-4.34375	-2.18181818181818	linear	explosion	5	red	0.2	0	NA	NA
293.592	0.726	15	3	pump	5	-3.34375	-1.18181818181818	linear	explosion	5	red	0.3	0	NA	NA
296.148	0.395	15	4	pump	5	-2.34375	-0.181818181818182	linear	explosion	5	red	0.4	0	NA	NA
298.026	0.537	15	5	pump	5	NA	NA	linear	explosion	5	red	0.5	0	300.459	2
305.994	0.559	16	1	pump	6	-5.34375	-4.3	exponential	cashout	11	blue	0.01	0.43	NA	NA
308.46	0.242	16	2	pump	6	-4.34375	-3.3	exponential	cashout	11	blue	0.0428709385014517	0.43	NA	NA
310.409	0.388	16	3	pump	6	-3.34375	-2.3	exponential	cashout	11	blue	0.100451085663051	0.43	NA	NA
311.976	0.526	16	4	pump	6	-2.34375	-1.3	exponential	cashout	11	blue	0.183791736799526	0.43	NA	NA
313.859	0.446	16	5	pump	6	-1.34375	-0.3	exponential	cashout	11	blue	0.293654735772005	0.43	NA	NA
316.092	0.601	16	6	pump	6	-0.34375	0.7	exponential	cashout	11	blue	0.430643231586474	0.43	NA	NA
318.642	0.611	16	7	cashout	6	NA	NA	exponential	cashout	11	blue	0.595258881579143	0.43	NA	NA
328.026	0.556	17	1	pump	14	-5.34375	-8.45454545454546	control	control	14	grey	0	0	NA	NA
329.892	0.4	17	2	pump	14	-4.34375	-7.45454545454546	control	control	14	grey	0	0	NA	NA
332.326	1.308	17	3	pump	14	-3.34375	-6.45454545454546	control	control	14	grey	0	0	NA	NA
335.409	0.379	17	4	pump	14	-2.34375	-5.45454545454546	control	control	14	grey	0	0	NA	NA
337.242	0.503	17	5	pump	14	-1.34375	-4.45454545454546	control	control	14	grey	0	0	NA	NA
339.742	0.612	17	6	pump	14	-0.34375	-3.45454545454546	control	control	14	grey	0	0	NA	NA
341.759	0.351	17	7	pump	14	0.65625	-2.45454545454546	control	control	14	grey	0	0	NA	NA
343.892	0.332	17	8	pump	14	1.65625	-1.45454545454546	control	control	14	grey	0	0	NA	NA
346.175	0.377	17	9	pump	14	2.65625	-0.454545454545455	control	control	14	grey	0	0	NA	NA
348.425	0.382	17	10	pump	14	3.65625	0.545454545454545	control	control	14	grey	0	0	NA	NA
350.726	0.225	17	11	pump	14	4.65625	1.54545454545454	control	control	14	grey	0	0	NA	NA
352.775	0.548	17	12	pump	14	5.65625	2.54545454545454	control	control	14	grey	0	0	NA	NA
355.394	0.384	17	13	pump	14	6.65625	3.54545454545454	control	control	14	grey	0	0	NA	NA
357.76	0.373	17	14	pump	14	7.65625	4.54545454545454	control	control	14	grey	0	0	NA	NA
364.175	0.77	18	1	pump	4	-5.34375	-3.18181818181818	linear	explosion	4	red	0.1	0	NA	NA
366.024	0.817	18	2	pump	4	-4.34375	-2.18181818181818	linear	explosion	4	red	0.2	0	NA	NA
368.542	0.361	18	3	pump	4	-3.34375	-1.18181818181818	linear	explosion	4	red	0.3	0	NA	NA
370.425	0.398	18	4	pump	4	NA	NA	linear	explosion	4	red	0.4	0	372.059	2
376.225	0.704	19	1	pump	6	-5.34375	-8.45454545454546	control	control	6	grey	0	0	NA	NA
378.325	0.389	19	2	pump	6	-4.34375	-7.45454545454546	control	control	6	grey	0	0	NA	NA
380.125	0.267	19	3	pump	6	-3.34375	-6.45454545454546	control	control	6	grey	0	0	NA	NA
382.259	0.249	19	4	pump	6	-2.34375	-5.45454545454546	control	control	6	grey	0	0	NA	NA
384.459	0.269	19	5	pump	6	-1.34375	-4.45454545454546	control	control	6	grey	0	0	NA	NA
386.025	0.366	19	6	pump	6	-0.34375	-3.45454545454546	control	control	6	grey	0	0	NA	NA
389.109	0.64	20	1	pump	4	-5.34375	-4.3	exponential	cashout	6	blue	0.01	0.18	NA	NA
390.942	0.411	20	2	pump	4	-4.34375	-3.3	exponential	cashout	6	blue	0.0428709385014517	0.18	NA	NA
392.892	0.388	20	3	pump	4	-3.34375	-2.3	exponential	cashout	6	blue	0.100451085663051	0.18	NA	NA
394.709	0.371	20	4	pump	4	-2.34375	-1.3	exponential	cashout	6	blue	0.183791736799526	0.18	NA	NA
396.975	0.61	20	5	cashout	4	NA	NA	exponential	cashout	6	blue	0.293654735772005	0.18	NA	NA
402.642	0.893	21	1	pump	5	-5.34375	-3.18181818181818	linear	cashout	8	red	0.1	0.5	NA	NA
405.525	0.335	21	2	pump	5	-4.34375	-2.18181818181818	linear	cashout	8	red	0.2	0.5	NA	NA
407.293	0.351	21	3	pump	5	-3.34375	-1.18181818181818	linear	cashout	8	red	0.3	0.5	NA	NA
409.076	0.338	21	4	pump	5	-2.34375	-0.181818181818182	linear	cashout	8	red	0.4	0.5	NA	NA
410.859	0.719	21	5	pump	5	-1.34375	0.818181818181818	linear	cashout	8	red	0.5	0.5	NA	NA
413.259	0.543	21	6	cashout	5	NA	NA	linear	cashout	8	red	0.6	0.5	NA	NA
423.609	0.615	22	1	pump	6	-5.34375	-8.45454545454546	control	control	6	grey	0	0	NA	NA
425.742	0.341	22	2	pump	6	-4.34375	-7.45454545454546	control	control	6	grey	0	0	NA	NA
427.692	0.297	22	3	pump	6	-3.34375	-6.45454545454546	control	control	6	grey	0	0	NA	NA
429.692	0.312	22	4	pump	6	-2.34375	-5.45454545454546	control	control	6	grey	0	0	NA	NA
431.709	0.342	22	5	pump	6	-1.34375	-4.45454545454546	control	control	6	grey	0	0	NA	NA
433.675	0.273	22	6	pump	6	-0.34375	-3.45454545454546	control	control	6	grey	0	0	NA	NA
437.059	0.467	23	1	pump	4	-5.34375	-4.3	exponential	cashout	6	blue	0.01	0.18	NA	NA
439.059	0.486	23	2	pump	4	-4.34375	-3.3	exponential	cashout	6	blue	0.0428709385014517	0.18	NA	NA
441.425	0.342	23	3	pump	4	-3.34375	-2.3	exponential	cashout	6	blue	0.100451085663051	0.18	NA	NA
443.647	0.484	23	4	pump	4	-2.34375	-1.3	exponential	cashout	6	blue	0.183791736799526	0.18	NA	NA
446.175	0.487	23	5	cashout	4	NA	NA	exponential	cashout	6	blue	0.293654735772005	0.18	NA	NA
452.425	0.597	24	1	pump	2	-5.34375	-3.18181818181818	linear	explosion	2	red	0.1	0	NA	NA
455.027	0.289	24	2	pump	2	NA	NA	linear	explosion	2	red	0.2	0	456.826	2
460.109	0.603	25	1	pump	10	-5.34375	-8.45454545454546	control	control	10	grey	0	0	NA	NA
462.475	0.815	25	2	pump	10	-4.34375	-7.45454545454546	control	control	10	grey	0	0	NA	NA
465.042	0.269	25	3	pump	10	-3.34375	-6.45454545454546	control	control	10	grey	0	0	NA	NA
466.925	0.272	25	4	pump	10	-2.34375	-5.45454545454546	control	control	10	grey	0	0	NA	NA
469.142	0.229	25	5	pump	10	-1.34375	-4.45454545454546	control	control	10	grey	0	0	NA	NA
471.409	0.268	25	6	pump	10	-0.34375	-3.45454545454546	control	control	10	grey	0	0	NA	NA
473.459	0.371	25	7	pump	10	0.65625	-2.45454545454546	control	control	10	grey	0	0	NA	NA
475.325	0.526	25	8	pump	10	1.65625	-1.45454545454546	control	control	10	grey	0	0	NA	NA
477.009	0.417	25	9	pump	10	2.65625	-0.454545454545455	control	control	10	grey	0	0	NA	NA
478.819	0.437	25	10	pump	10	3.65625	0.545454545454545	control	control	10	grey	0	0	NA	NA
489.625	0.574	26	1	pump	5	-5.34375	-3.18181818181818	linear	cashout	14	red	0.1	0.5	NA	NA
491.509	0.623	26	2	pump	5	-4.34375	-2.18181818181818	linear	cashout	14	red	0.2	0.5	NA	NA
493.692	0.366	26	3	pump	5	-3.34375	-1.18181818181818	linear	cashout	14	red	0.3	0.5	NA	NA
495.592	0.413	26	4	pump	5	-2.34375	-0.181818181818182	linear	cashout	14	red	0.4	0.5	NA	NA
497.096	0.559	26	5	pump	5	-1.34375	0.818181818181818	linear	cashout	14	red	0.5	0.5	NA	NA
499.709	0.613	26	6	cashout	5	NA	NA	linear	cashout	14	red	0.6	0.5	NA	NA
507.476	0.427	27	1	pump	4	-5.34375	-4.3	exponential	cashout	6	blue	0.01	0.18	NA	NA
509.559	0.351	27	2	pump	4	-4.34375	-3.3	exponential	cashout	6	blue	0.0428709385014517	0.18	NA	NA
511.142	0.461	27	3	pump	4	-3.34375	-2.3	exponential	cashout	6	blue	0.100451085663051	0.18	NA	NA
512.692	0.433	27	4	pump	4	-2.34375	-1.3	exponential	cashout	6	blue	0.183791736799526	0.18	NA	NA
514.575	0.506	27	5	cashout	4	NA	NA	exponential	cashout	6	blue	0.293654735772005	0.18	NA	NA
523.709	0.664	28	1	pump	14	-5.34375	-8.45454545454546	control	control	14	grey	0	0	NA	NA
526.003	0.543	28	2	pump	14	-4.34375	-7.45454545454546	control	control	14	grey	0	0	NA	NA
528.342	0.326	28	3	pump	14	-3.34375	-6.45454545454546	control	control	14	grey	0	0	NA	NA
529.785	0.372	28	4	pump	14	-2.34375	-5.45454545454546	control	control	14	grey	0	0	NA	NA
531.525	0.323	28	5	pump	14	-1.34375	-4.45454545454546	control	control	14	grey	0	0	NA	NA
532.925	0.373	28	6	pump	14	-0.34375	-3.45454545454546	control	control	14	grey	0	0	NA	NA
534.642	0.297	28	7	pump	14	0.65625	-2.45454545454546	control	control	14	grey	0	0	NA	NA
536.609	0.344	28	8	pump	14	1.65625	-1.45454545454546	control	control	14	grey	0	0	NA	NA
538.975	0.547	28	9	pump	14	2.65625	-0.454545454545455	control	control	14	grey	0	0	NA	NA
540.875	0.507	28	10	pump	14	3.65625	0.545454545454545	control	control	14	grey	0	0	NA	NA
542.509	0.661	28	11	pump	14	4.65625	1.54545454545454	control	control	14	grey	0	0	NA	NA
544.692	0.553	28	12	pump	14	5.65625	2.54545454545454	control	control	14	grey	0	0	NA	NA
546.442	0.569	28	13	pump	14	6.65625	3.54545454545454	control	control	14	grey	0	0	NA	NA
548.242	0.392	28	14	pump	14	7.65625	4.54545454545454	control	control	14	grey	0	0	NA	NA
558.359	0.525	29	1	pump	5	-5.34375	-4.3	exponential	cashout	12	blue	0.01	0.29	NA	NA
560.892	0.352	29	2	pump	5	-4.34375	-3.3	exponential	cashout	12	blue	0.0428709385014517	0.29	NA	NA
562.625	0.362	29	3	pump	5	-3.34375	-2.3	exponential	cashout	12	blue	0.100451085663051	0.29	NA	NA
564.575	0.334	29	4	pump	5	-2.34375	-1.3	exponential	cashout	12	blue	0.183791736799526	0.29	NA	NA
566.792	0.574	29	5	pump	5	-1.34375	-0.3	exponential	cashout	12	blue	0.293654735772005	0.29	NA	NA
569.309	0.451	29	6	cashout	5	NA	NA	exponential	cashout	12	blue	0.430643231586474	0.29	NA	NA
574.759	0.698	30	1	pump	4	-5.34375	-3.18181818181818	linear	cashout	5	red	0.1	0.4	NA	NA
577.325	0.312	30	2	pump	4	-4.34375	-2.18181818181818	linear	cashout	5	red	0.2	0.4	NA	NA
579.409	0.36	30	3	pump	4	-3.34375	-1.18181818181818	linear	cashout	5	red	0.3	0.4	NA	NA
580.901	0.45	30	4	pump	4	-2.34375	-0.181818181818182	linear	cashout	5	red	0.4	0.4	NA	NA
582.992	0.588	30	5	cashout	4	NA	NA	linear	cashout	5	red	0.5	0.4	NA	NA
589.859	0.492	31	1	pump	4	-5.34375	-3.18181818181818	linear	cashout	13	red	0.1	0.4	NA	NA
591.625	0.364	31	2	pump	4	-4.34375	-2.18181818181818	linear	cashout	13	red	0.2	0.4	NA	NA
593.792	0.474	31	3	pump	4	-3.34375	-1.18181818181818	linear	cashout	13	red	0.3	0.4	NA	NA
595.925	0.389	31	4	pump	4	-2.34375	-0.181818181818182	linear	cashout	13	red	0.4	0.4	NA	NA
598.092	1.822	31	5	cashout	4	NA	NA	linear	cashout	13	red	0.5	0.4	NA	NA
608.575	0.516	32	1	pump	5	-5.34375	-8.45454545454546	control	control	5	grey	0	0	NA	NA
610.875	0.279	32	2	pump	5	-4.34375	-7.45454545454546	control	control	5	grey	0	0	NA	NA
612.623	0.288	32	3	pump	5	-3.34375	-6.45454545454546	control	control	5	grey	0	0	NA	NA
614.942	0.298	32	4	pump	5	-2.34375	-5.45454545454546	control	control	5	grey	0	0	NA	NA
616.655	0.362	32	5	pump	5	-1.34375	-4.45454545454546	control	control	5	grey	0	0	NA	NA
