onset	duration	trial	trial_id	choice	choice_bin	magnitude_sooner	delay_sooner	magnitude_later	delay_later	onset_choice_fb	duration_choice_fb
14.633	1.98	1	24	LL	2	11.37	0	17.06	4	16.649	1.5
24.983	2.314	2	38	SS	1	32.44	2	40.55	4	27.318	1.5
31.216	2.812	3	68	SS	1	25.55	4	28.11	6	34.049	1.5
39.283	1.829	4	75	SS	1	20.18	4	21.19	6	41.133	1.5
49.916	2.021	5	28	SS	1	6.41	0	7.05	4	51.966	1.5
58.149	2.58	6	1	SS	1	37.69	0	38.07	2	60.756	1.5
65.833	2.08	7	79	LL	2	14.58	4	19.68	6	67.949	1.5
71.566	2.772	8	11	LL	2	24.85	0	26.09	2	74.366	1.5
80.1	2.751	9	21	SS	1	19.12	0	21.99	4	82.866	1.5
89.333	2.461	10	4	SS	1	13.42	0	14.77	2	91.816	1.5
102.166	3.211	11	56	LL	2	26.96	2	40.44	6	105.399	1.5
115.216	2.35	12	74	SS	1	13.42	4	13.82	6	117.599	1.5
121.033	2.488	13	25	SS	1	9.89	0	9.99	4	123.549	1.5
128.767	3.805	14	70	LL	2	25.9	4	32.37	6	132.599	1.5
137.583	2.865	15	51	SS	1	37.85	2	39.74	6	140.466	1.5
149.716	2.951	16	60	SS	1	6.45	2	7.1	6	152.699	1.5
155.558	2.27	17	72	LL	2	29.27	4	43.91	6	157.849	1.5
161.516	2.927	18	66	SS	1	11.96	4	12.32	6	164.466	1.5
170.799	2.772	19	40	LL	2	12.44	2	18.66	4	173.599	1.5
178.883	4.169	20	7	LL	2	19.45	0	26.26	2	183.066	1.5
187.133	3.994	21	54	SS	1	14.88	2	18.61	6	191.149	1.5
196.133	2.316	22	49	SS	1	23.7	2	23.94	6	198.483	1.5
207.683	2.741	23	19	SS	1	28.48	0	29.91	4	210.45	1.5
217.95	3.089	24	2	SS	1	24.28	0	25	2	221.066	1.5
229.7	3.483	25	78	LL	2	18.61	4	23.27	6	233.2	1.5
244.2	2.178	26	9	SS	1	22.32	0	22.54	2	246.4	1.5
250.05	2.709	27	3	SS	1	10.51	0	11.04	2	252.783	1.5
258.7	2.808	28	13	LL	2	16.21	0	18.64	2	261.533	1.5
267.05	2.409	29	50	SS	1	20.53	2	21.14	6	269.486	1.5
274.951	2.902	30	22	LL	2	18.4	0	23	4	277.866	1.5
288.3	3.167	31	59	SS	1	11.17	2	11.73	6	291.495	1.5
294.366	2.047	32	26	SS	1	38.48	0	39.63	4	296.433	1.5
300.95	2.955	33	36	SS	1	18.11	2	19.92	4	303.933	1.5
308.316	3.137	34	67	SS	1	6.26	4	6.57	6	311.483	1.5
315.466	3.467	35	23	SS	1	6.11	0	8.25	4	318.966	1.5
323.234	5	36	20	NA	NA	30.4	0	33.44	4	NA	NA
331.416	2.134	37	64	LL	2	26.95	2	40.42	6	333.566	1.5
338.366	2.292	38	27	SS	1	22.78	0	23.92	4	340.683	1.5
346	2.58	39	63	LL	2	25.61	2	34.57	6	348.6	1.5
353.783	2.978	40	77	LL	2	25.13	4	28.9	6	356.783	1.5
360.633	2.532	41	34	SS	1	7.42	2	7.64	4	363.2	1.5
371.318	2.041	42	35	SS	1	20.14	2	21.15	4	373.384	1.5
378.55	2.279	43	42	SS	1	9.5	2	9.79	4	380.85	1.5
386.1	2.346	44	5	LL	2	32.79	0	37.71	2	388.466	1.5
395.067	2.242	45	33	SS	1	25.56	2	25.82	4	397.333	1.5
401.6	2.406	46	37	SS	1	17.36	2	19.96	4	404.033	1.5
410.7	2.282	47	6	LL	2	10.5	0	13.13	2	413.017	1.5
416.783	3.107	48	53	SS	1	35.19	2	40.46	6	419.917	1.5
426.917	4.606	49	62	LL	2	25.3	2	31.63	6	431.55	1.5
435.7	2.382	50	80	LL	2	9.39	4	14.08	6	438.1	1.5
441.017	2.411	51	8	LL	2	14.49	0	21.74	2	443.45	1.5
448.55	2.073	52	14	LL	2	27.84	0	34.8	2	450.65	1.5
453.79	3.736	53	45	LL	2	36.8	2	42.32	4	457.55	1.5
463.767	2.939	54	61	SS	1	18.24	2	20.97	6	466.733	1.5
472.784	4.356	55	32	LL	2	11.53	0	17.29	4	477.167	1.5
484.167	3.95	56	46	LL	2	30.77	2	38.46	4	488.145	1.5
493.4	3.455	57	12	SS	1	21.96	0	24.16	2	496.883	1.5
500.033	2.894	58	65	SS	1	13.22	4	13.35	6	502.95	1.5
507.317	3.257	59	15	LL	2	16.47	0	22.24	2	510.6	1.5
514.767	1.88	60	17	SS	1	22.32	0	22.55	4	516.683	1.5
523.017	3.089	61	71	LL	2	10.98	4	14.83	6	526.133	1.5
533.65	2.895	62	39	LL	2	14.56	2	19.66	4	536.567	1.5
545.483	4.189	63	55	LL	2	29.45	2	39.75	6	549.7	1.5
557.05	4.19	64	52	SS	1	30.66	2	33.73	6	561.267	1.5
565.933	3.363	65	31	LL	2	23.44	0	31.64	4	569.318	1.5
576.417	2.342	66	16	LL	2	19.29	0	28.94	2	578.783	1.5
587.5	2.723	67	29	LL	2	32.7	0	37.6	4	590.25	1.5
595.25	3.191	68	69	LL	2	22.62	4	26.01	6	598.467	1.5
603.217	2.823	69	48	LL	2	22.77	2	34.16	4	606.067	1.5
611.35	2.564	70	73	SS	1	9.59	4	9.68	6	613.95	1.5
617.369	1.819	71	10	SS	1	21.66	0	22.31	2	619.201	1.5
630.784	2.518	72	18	SS	1	5.78	0	5.95	4	633.33	1.5
639.567	2.023	73	58	SS	1	12.69	2	13.07	6	641.617	1.5
644.717	3.654	74	47	LL	2	20.07	2	27.1	4	648.4	1.5
653.034	3.146	75	76	SS	1	22.92	4	25.21	6	656.217	1.5
661.367	2.547	76	30	LL	2	25.92	0	32.4	4	663.95	1.5
673.2	3.355	77	44	SS	1	22.39	2	24.62	4	676.584	1.5
681.584	2.319	78	41	SS	1	11.65	2	11.77	4	683.934	1.5
693.584	3.769	79	43	SS	1	24.99	2	26.24	4	697.384	1.5
703.784	2.586	80	57	SS	1	28.25	2	28.53	6	706.4	1.5
