onset	duration	trial	trial_id	choice	choice_bin	magnitude_sooner	delay_sooner	magnitude_later	delay_later	onset_choice_fb	duration_choice_fb
17.662	4.713	1	11	LL	2	24.85	0	26.09	2	22.395	1.5
27.278	3.632	2	3	SS	1	10.51	0	11.04	2	30.928	1.5
39.278	2.339	3	14	LL	2	27.84	0	34.8	2	41.645	1.5
45.895	4.896	4	74	SS	1	13.42	4	13.82	6	50.828	1.5
56.845	5	5	38	NA	NA	32.44	2	40.55	4	NA	NA
64.113	2.179	6	37	LL	2	17.36	2	19.96	4	66.312	1.5
70.578	2.868	7	71	LL	2	10.98	4	14.83	6	73.461	1.5
78.645	2.103	8	56	LL	2	26.96	2	40.44	6	80.778	1.5
84.423	2.156	9	52	SS	1	30.66	2	33.73	6	86.611	1.5
90.071	2.626	10	65	SS	1	13.22	4	13.35	6	92.728	1.5
96.778	1.854	11	75	SS	1	20.18	4	21.19	6	98.661	1.5
102.495	2.508	12	39	SS	1	14.56	2	19.66	4	105.028	1.5
109.545	3.947	13	54	SS	1	14.88	2	18.61	6	113.513	1.5
122.061	2.561	14	22	SS	1	18.4	0	23	4	124.645	1.5
128.078	2.926	15	32	SS	1	11.53	0	17.29	4	131.028	1.5
138.261	2.179	16	29	SS	1	32.7	0	37.6	4	140.461	1.5
143.661	2.722	17	9	SS	1	22.32	0	22.54	2	146.411	1.5
149.411	2.3	18	67	SS	1	6.26	4	6.57	6	151.745	1.5
156.828	4.332	19	19	LL	2	28.48	0	29.91	4	161.18	1.5
165.712	4.146	20	72	LL	2	29.27	4	43.91	6	169.878	1.5
174.111	3.161	21	57	SS	1	28.25	2	28.53	6	177.295	1.5
183.845	3.83	22	12	LL	2	21.96	0	24.16	2	187.695	1.5
192.395	3.107	23	69	LL	2	22.62	4	26.01	6	195.528	1.5
200.928	2.574	24	64	SS	1	26.95	2	40.42	6	203.528	1.5
210.43	2.406	25	45	SS	1	36.8	2	42.32	4	212.863	1.5
217.245	2.631	26	35	SS	1	20.14	2	21.15	4	219.895	1.5
230.595	2.853	27	50	SS	1	20.53	2	21.14	6	233.478	1.5
241.461	1.893	28	21	SS	1	19.12	0	21.99	4	243.378	1.5
254.945	2.832	29	68	SS	1	25.55	4	28.11	6	257.811	1.5
264.945	2.775	30	66	SS	1	11.96	4	12.32	6	267.745	1.5
276.378	3.012	31	53	SS	1	35.19	2	40.46	6	279.411	1.5
282.661	3.99	32	47	LL	2	20.07	2	27.1	4	286.678	1.5
294.461	2.341	33	23	SS	1	6.11	0	8.25	4	296.828	1.5
308.28	3.156	34	15	SS	1	16.47	0	22.24	2	311.462	1.5
317.778	3.019	35	44	SS	1	22.39	2	24.62	4	320.811	1.5
325.445	2.42	36	58	SS	1	12.69	2	13.07	6	327.895	1.5
331.961	3.803	37	77	LL	2	25.13	4	28.9	6	335.795	1.5
343.011	3.312	38	41	SS	1	11.65	2	11.77	4	346.351	1.5
351.528	3.155	39	36	SS	1	18.11	2	19.92	4	354.711	1.5
360.846	3.171	40	78	SS	1	18.61	4	23.27	6	364.045	1.5
374.061	4.211	41	10	SS	1	21.66	0	22.31	2	378.295	1.5
382.511	3.14	42	24	LL	2	11.37	0	17.06	4	385.678	1.5
390.778	5	43	62	NA	NA	25.3	2	31.63	6	NA	NA
403.812	2.348	44	55	SS	1	29.45	2	39.75	6	406.195	1.5
408.813	2.389	45	79	SS	1	14.58	4	19.68	6	411.229	1.5
414.311	2.122	46	51	SS	1	37.85	2	39.74	6	416.461	1.5
420.576	3.138	47	31	LL	2	23.44	0	31.64	4	423.745	1.5
427.545	2.84	48	80	LL	2	9.39	4	14.08	6	430.412	1.5
433.595	2.156	49	60	SS	1	6.45	2	7.1	6	435.778	1.5
445.578	2.069	50	30	SS	1	25.92	0	32.4	4	447.678	1.5
456.48	1.919	51	27	SS	1	22.78	0	23.92	4	458.413	1.5
462.728	3.218	52	70	LL	2	25.9	4	32.37	6	465.962	1.5
472.462	1.825	53	18	SS	1	5.78	0	5.95	4	474.312	1.5
479.778	2.566	54	16	LL	2	19.29	0	28.94	2	482.371	1.5
486.428	2.579	55	59	SS	1	11.17	2	11.73	6	489.028	1.5
495.495	3.64	56	63	SS	1	25.61	2	34.57	6	499.162	1.5
502.962	1.665	57	20	SS	1	30.4	0	33.44	4	504.662	1.5
508.846	1.702	58	28	SS	1	6.41	0	7.05	4	510.562	1.5
518.828	2.352	59	7	SS	1	19.45	0	26.26	2	521.195	1.5
524.495	2.707	60	6	LL	2	10.5	0	13.13	2	527.228	1.5
530.478	2.939	61	46	LL	2	30.77	2	38.46	4	533.445	1.5
536.045	3.285	62	48	SS	1	22.77	2	34.16	4	539.362	1.5
543.728	3.051	63	8	SS	1	14.49	0	21.74	2	546.812	1.5
556.779	1.824	64	25	SS	1	9.89	0	9.99	4	558.629	1.5
561.728	1.678	65	42	SS	1	9.5	2	9.79	4	563.428	1.5
567.412	2.218	66	5	SS	1	32.79	0	37.71	2	569.645	1.5
577.395	2.239	67	49	SS	1	23.7	2	23.94	6	579.662	1.5
591.728	1.485	68	1	SS	1	37.69	0	38.07	2	593.245	1.5
596.345	1.942	69	43	SS	1	24.99	2	26.24	4	598.312	1.5
608.645	2.558	70	73	SS	1	9.59	4	9.68	6	611.228	1.5
615.945	2.097	71	13	SS	1	16.21	0	18.64	2	618.062	1.5
623.462	2.105	72	33	SS	1	25.56	2	25.82	4	625.595	1.5
629.795	2.042	73	26	SS	1	38.48	0	39.63	4	631.862	1.5
635.645	2.975	74	34	SS	1	7.42	2	7.64	4	638.645	1.5
644.745	3.332	75	40	LL	2	12.44	2	18.66	4	648.112	1.5
652.33	2.33	76	61	SS	1	18.24	2	20.97	6	654.68	1.5
664.762	2.401	77	4	SS	1	13.42	0	14.77	2	667.178	1.5
675.212	1.425	78	17	SS	1	22.32	0	22.55	4	676.662	1.5
681.237	2.373	79	76	SS	1	22.92	4	25.21	6	683.645	1.5
691.245	2.665	80	2	SS	1	24.28	0	25	2	693.945	1.5
