onset	duration	trial	trial_id	choice	choice_bin	magnitude_sooner	delay_sooner	magnitude_later	delay_later	onset_choice_fb	duration_choice_fb
13.157	1.638	1	47	SS	1	20.07	2	27.1	4	14.824	1.5
18.274	1.5	2	42	SS	1	9.5	2	9.79	4	19.79	1.5
27.857	1.55	3	78	SS	1	18.61	4	23.27	6	29.44	1.5
35.19	1.607	4	37	SS	1	17.36	2	19.96	4	36.824	1.5
44.69	1.678	5	74	SS	1	13.42	4	13.82	6	46.407	1.5
54.542	1.599	6	18	SS	1	5.78	0	5.95	4	56.158	1.5
61.107	1.388	7	64	LL	2	26.95	2	40.42	6	62.523	1.49999999999999
72.674	1.498	8	58	SS	1	12.69	2	13.07	6	74.19	1.5
79.274	1.485	9	35	SS	1	20.14	2	21.15	4	80.79	1.5
84.94	1.367	10	59	SS	1	11.17	2	11.73	6	86.34	1.5
94.44	1.542	11	49	SS	1	23.7	2	23.94	6	96.007	1.5
107.091	2.086	12	15	SS	1	16.47	0	22.24	2	109.19	1.5
116.74	2.045	13	67	SS	1	6.26	4	6.57	6	118.807	1.5
121.757	2.319	14	30	SS	1	25.92	0	32.4	4	124.107	1.5
132.007	1.797	15	19	SS	1	28.48	0	29.91	4	133.832	1.5
141.357	2.16	16	68	SS	1	25.55	4	28.11	6	143.545	1.5
151.324	2.029	17	31	LL	2	23.44	0	31.64	4	153.375	1.5
162.64	1.755	18	70	SS	1	25.9	4	32.37	6	164.424	1.5
169.807	2.067	19	3	SS	1	10.51	0	11.04	2	171.89	1.5
176.157	1.604	20	50	SS	1	20.53	2	21.14	6	177.79	1.5
184.674	2.2	21	71	LL	2	10.98	4	14.83	6	186.907	1.5
191.157	2.141	22	14	SS	1	27.84	0	34.8	2	193.324	1.5
196.84	2.154	23	54	SS	1	14.88	2	18.61	6	199.024	1.5
202.142	2.032	24	13	SS	1	16.21	0	18.64	2	204.191	1.5
213.207	2.285	25	80	LL	2	9.39	4	14.08	6	215.507	1.5
225.057	1.878	26	17	SS	1	22.32	0	22.55	4	226.957	1.5
229.507	2.179	27	52	SS	1	30.66	2	33.73	6	231.707	1.5
244.14	2.608	28	73	SS	1	9.59	4	9.68	6	246.774	1.5
251.026	2.502	29	46	SS	1	30.77	2	38.46	4	253.541	1.5
260.54	1.818	30	34	SS	1	7.42	2	7.64	4	262.374	1.5
265.024	1.989	31	29	SS	1	32.7	0	37.6	4	267.041	1.5
271.374	3.066	32	40	LL	2	12.44	2	18.66	4	274.468	1.5
283.974	2.313	33	21	SS	1	19.12	0	21.99	4	286.314	1.5
289.941	2.673	34	22	SS	1	18.4	0	23	4	292.641	1.5
295.424	2.293	35	4	SS	1	13.42	0	14.77	2	297.757	1.5
305.507	2.298	36	12	SS	1	21.96	0	24.16	2	307.824	1.5
311.974	3.678	37	23	SS	1	6.11	0	8.25	4	315.674	1.5
320.424	1.953	38	76	SS	1	22.92	4	25.21	6	322.407	1.5
329.891	2.812	39	26	SS	1	38.48	0	39.63	4	332.724	1.5
338.691	1.994	40	20	SS	1	30.4	0	33.44	4	340.712	1.5
345.874	3.024	41	63	SS	1	25.61	2	34.57	6	348.926	1.5
355.207	2.469	42	57	SS	1	28.25	2	28.53	6	357.691	1.5
366.957	1.989	43	44	SS	1	22.39	2	24.62	4	368.974	1.5
374.324	3.489	44	7	LL	2	19.45	0	26.26	2	377.841	1.5
381.674	2.558	45	79	LL	2	14.58	4	19.68	6	384.257	1.5
389.957	3.029	46	43	SS	1	24.99	2	26.24	4	393.024	1.5
397.826	1.665	47	51	SS	1	37.85	2	39.74	6	399.509	1.5
406.591	1.62	48	10	SS	1	21.66	0	22.31	2	408.224	1.5
412.907	2.867	49	39	SS	1	14.56	2	19.66	4	415.791	1.5
422.724	2.114	50	60	SS	1	6.45	2	7.1	6	424.857	1.5
430.107	2.052	51	16	LL	2	19.29	0	28.94	2	432.191	1.5
435.757	1.767	52	33	SS	1	25.56	2	25.82	4	437.557	1.5
442.891	3.047	53	32	SS	1	11.53	0	17.29	4	445.974	1.5
454.191	2.996	54	55	SS	1	29.45	2	39.75	6	457.207	1.5
460.124	2.056	55	27	SS	1	22.78	0	23.92	4	462.207	1.5
466.707	2.379	56	38	LL	2	32.44	2	40.55	4	469.107	1.5
473.607	2.804	57	5	LL	2	32.79	0	37.71	2	476.441	1.5
482.707	2.623	58	56	SS	1	26.96	2	40.44	6	485.357	1.5
488.957	2.03	59	28	SS	1	6.41	0	7.05	4	491.024	1.5
493.641	2.282	60	36	SS	1	18.11	2	19.92	4	495.943	1.5
505.357	2.076	61	25	SS	1	9.89	0	9.99	4	507.457	1.5
516.157	2.216	62	48	LL	2	22.77	2	34.16	4	518.391	1.5
523.374	1.686	63	1	SS	1	37.69	0	38.07	2	525.091	1.5
528.341	1.952	64	9	SS	1	22.32	0	22.54	2	530.324	1.5
534.091	2.146	65	75	SS	1	20.18	4	21.19	6	536.274	1.5
544.491	2.231	66	2	SS	1	24.28	0	25	2	546.742	1.5
552.307	3.482	67	72	LL	2	29.27	4	43.91	6	555.807	1.5
568.241	2.821	68	24	SS	1	11.37	0	17.06	4	571.091	1.5
575.491	2.653	69	69	LL	2	22.62	4	26.01	6	578.174	1.5
586.645	1.592	70	77	SS	1	25.13	4	28.9	6	588.274	1.5
594.743	2.1	71	61	SS	1	18.24	2	20.97	6	596.859	1.5
605.141	2.23	72	66	SS	1	11.96	4	12.32	6	607.391	1.5
612.174	2.668	73	65	SS	1	13.22	4	13.35	6	614.874	1.5
620.441	2.55	74	53	SS	1	35.19	2	40.46	6	623.024	1.5
627.207	4.004	75	45	SS	1	36.8	2	42.32	4	631.241	1.5
639.741	2.194	76	62	SS	1	25.3	2	31.63	6	641.974	1.5
645.625	3.661	77	8	SS	1	14.49	0	21.74	2	649.307	1.5
653.441	2.196	78	11	SS	1	24.85	0	26.09	2	655.657	1.5
659.504	4.229	79	6	LL	2	10.5	0	13.13	2	663.757	1.5
669.551	1.995	80	41	SS	1	11.65	2	11.77	4	671.574	1.5
