onset	duration	trial	trial_id	choice	choice_bin	magnitude_sooner	delay_sooner	magnitude_later	delay_later	onset_choice_fb	duration_choice_fb
13.111	1.437	1	58	SS	1	12.69	2	13.07	6	14.576	1.5
17.359	1.302	2	1	SS	1	37.69	0	38.07	2	18.676	1.5
23.726	1.329	3	50	SS	1	20.53	2	21.14	6	25.076	1.5
27.909	2.101	4	71	LL	2	10.98	4	14.83	6	30.038	1.5
35.943	1.506	5	48	LL	2	22.77	2	34.16	4	37.476	1.5
46.576	1.647	6	44	SS	1	22.39	2	24.62	4	48.259	1.5
52.576	1.645	7	31	LL	2	23.44	0	31.64	4	54.259	1.5
57.426	1.87	8	28	SS	1	6.41	0	7.05	4	59.312	1.5
65.01	2.008	9	61	LL	2	18.24	2	20.97	6	67.043	1.5
73.91	1.487	10	65	SS	1	13.22	4	13.35	6	75.426	1.5
79.393	1.34	11	72	LL	2	29.27	4	43.91	6	80.76	1.5
84.376	2.028	12	12	SS	1	21.96	0	24.16	2	86.426	1.5
90.326	1.67	13	18	SS	1	5.78	0	5.95	4	92.026	1.5
99.776	1.413	14	67	SS	1	6.26	4	6.57	6	101.226	1.5
106.676	1.524	15	35	SS	1	20.14	2	21.15	4	108.228	1.5
118.86	2.098	16	26	SS	1	38.48	0	39.63	4	120.976	1.5
124.626	1.28	17	32	LL	2	11.53	0	17.29	4	125.926	1.5
129.86	1.835	18	68	LL	2	25.55	4	28.11	6	131.726	1.5
135.143	2.141	19	66	SS	1	11.96	4	12.32	6	137.31	1.5
142.676	2.232	20	60	LL	2	6.45	2	7.1	6	144.943	1.5
157.21	1.613	21	7	LL	2	19.45	0	26.26	2	158.845	1.5
169.66	1.971	22	27	SS	1	22.78	0	23.92	4	171.66	1.5
175.243	3.879	23	73	SS	1	9.59	4	9.68	6	179.143	1.5
183.42	1.28	24	34	SS	1	7.42	2	7.64	4	184.726	1.5
194.026	1.381	25	8	LL	2	14.49	0	21.74	2	195.443	1.5
207.51	1.393	26	79	LL	2	14.58	4	19.68	6	208.928	1.5
212.043	2.292	27	22	LL	2	18.4	0	23	4	214.36	1.5
225.86	2.041	28	52	LL	2	30.66	2	33.73	6	227.926	1.5
235.393	3.669	29	24	LL	2	11.37	0	17.06	4	239.093	1.5
244.393	2.243	30	69	LL	2	22.62	4	26.01	6	246.66	1.5
251.643	1.231	31	39	LL	2	14.56	2	19.66	4	252.91	1.5
257.028	1.711	32	47	LL	2	20.07	2	27.1	4	258.761	1.5
264.96	1.439	33	64	LL	2	26.95	2	40.42	6	266.426	1.5
276.576	1.329	34	30	LL	2	25.92	0	32.4	4	277.926	1.5
280.96	1.95	35	25	SS	1	9.89	0	9.99	4	282.943	1.5
293.21	1.479	36	45	LL	2	36.8	2	42.32	4	294.726	1.5
299.593	1.134	37	80	LL	2	9.39	4	14.08	6	300.76	1.5
305.345	1.539	38	33	SS	1	25.56	2	25.82	4	306.911	1.5
312.76	1.675	39	9	SS	1	22.32	0	22.54	2	314.46	1.5
326.776	2.37	40	13	LL	2	16.21	0	18.64	2	329.177	1.5
333.477	1.328	41	74	SS	1	13.42	4	13.82	6	334.827	1.5
338.517	1.153	42	14	LL	2	27.84	0	34.8	2	339.693	1.5
345.877	1.262	43	70	LL	2	25.9	4	32.37	6	347.177	1.5
352.41	1.462	44	43	LL	2	24.99	2	26.24	4	353.91	1.5
358.277	1.961	45	77	LL	2	25.13	4	28.9	6	360.26	1.5
364.643	1.404	46	5	LL	2	32.79	0	37.71	2	366.075	1.5
369.31	4.348	47	3	SS	1	10.51	0	11.04	2	373.677	1.5
377.293	1.189	48	42	SS	1	9.5	2	9.79	4	378.51	1.5
388.743	2.346	49	36	SS	1	18.11	2	19.92	4	391.127	1.5
396.477	1.484	50	56	LL	2	26.96	2	40.44	6	397.993	1.5
405.661	2.858	51	2	SS	1	24.28	0	25	2	408.544	1.5
413.51	2.018	52	15	LL	2	16.47	0	22.24	2	415.543	1.5
421.01	1.553	53	40	LL	2	12.44	2	18.66	4	422.593	1.5
426.454	1.744	54	38	LL	2	32.44	2	40.55	4	428.227	1.5
433.51	2.221	55	29	LL	2	32.7	0	37.6	4	435.76	1.5
447.127	2.865	56	37	LL	2	17.36	2	19.96	4	450.027	1.5
452.829	1.436	57	78	LL	2	18.61	4	23.27	6	454.293	1.5
465.927	1.413	58	62	LL	2	25.3	2	31.63	6	467.36	1.5
473.293	2.444	59	21	LL	2	19.12	0	21.99	4	475.76	1.5
480.427	1.856	60	76	LL	2	22.92	4	25.21	6	482.31	1.5
486.643	1.5	61	59	SS	1	11.17	2	11.73	6	488.177	1.5
491.91	2.345	62	11	SS	1	24.85	0	26.09	2	494.293	1.5
498.21	1.997	63	19	SS	1	28.48	0	29.91	4	500.243	1.5
502.912	1.752	64	55	LL	2	29.45	2	39.75	6	504.678	1.5
507.377	2.207	65	20	SS	1	30.4	0	33.44	4	509.61	1.5
515.227	2.233	66	6	SS	1	10.5	0	13.13	2	517.477	1.5
523.493	3.202	67	4	SS	1	13.42	0	14.77	2	526.727	1.5
537.543	1.552	68	41	SS	1	11.65	2	11.77	4	539.127	1.5
546.277	1.451	69	53	LL	2	35.19	2	40.46	6	547.76	1.5
557.143	1.711	70	23	SS	1	6.11	0	8.25	4	558.877	1.5
565.793	2.266	71	75	SS	1	20.18	4	21.19	6	568.077	1.5
570.943	2	72	51	LL	2	37.85	2	39.74	6	572.971	1.5
576.21	3.013	73	54	LL	2	14.88	2	18.61	6	579.244	1.5
584.56	1.917	74	57	SS	1	28.25	2	28.53	6	586.51	1.5
593.11	1.732	75	10	SS	1	21.66	0	22.31	2	594.877	1.5
606.01	2.05	76	16	LL	2	19.29	0	28.94	2	608.077	1.5
617.477	1.701	77	63	LL	2	25.61	2	34.57	6	619.206	1.5
627.16	1.919	78	49	SS	1	23.7	2	23.94	6	629.11	1.5
632.76	1.939	79	17	SS	1	22.32	0	22.55	4	634.727	1.5
642.777	1.573	80	46	LL	2	30.77	2	38.46	4	644.377	1.5
