onset	duration	trial	trial_id	choice	choice_bin	magnitude_sooner	delay_sooner	magnitude_later	delay_later	onset_choice_fb	duration_choice_fb
14.421	1.771	1	15	LL	2	16.47	0	22.24	2	16.221	1.5
22.255	1.649	2	38	LL	2	32.44	2	40.55	4	23.938	1.5
30.074	1.888	3	45	LL	2	36.8	2	42.32	4	31.99	1.5
36.721	2.586	4	70	LL	2	25.9	4	32.37	6	39.322	1.5
42.903	1.4	5	58	SS	1	12.69	2	13.07	6	44.322	1.5
47.372	1.289	6	43	SS	1	24.99	2	26.24	4	48.688	1.5
52.705	1.799	7	41	SS	1	11.65	2	11.77	4	54.522	1.5
58.472	1.535	8	31	LL	2	23.44	0	31.64	4	60.038	1.5
72.172	1.7	9	71	LL	2	10.98	4	14.83	6	73.905	1.5
77.822	1.78	10	22	LL	2	18.4	0	23	4	79.638	1.5
87.322	1.654	11	61	SS	1	18.24	2	20.97	6	89.004	1.5
92.805	1.655	12	80	LL	2	9.39	4	14.08	6	94.488	1.5
106.422	1.897	13	57	SS	1	28.25	2	28.53	6	108.347	1.5
112.305	2.442	14	59	SS	1	11.17	2	11.73	6	114.772	1.5
119.655	1.719	15	73	SS	1	9.59	4	9.68	6	121.405	1.5
126.788	1.528	16	65	SS	1	13.22	4	13.35	6	128.341	1.5
132.622	1.608	17	3	SS	1	10.51	0	11.04	2	134.255	1.5
140.205	1.658	18	50	SS	1	20.53	2	21.14	6	141.888	1.5
148.505	1.418	19	63	LL	2	25.61	2	34.57	6	149.955	1.5
159.022	2.184	20	13	SS	1	16.21	0	18.64	2	161.238	1.5
171.388	1.407	21	74	SS	1	13.42	4	13.82	6	172.822	1.5
182.889	1.72	22	18	SS	1	5.78	0	5.95	4	184.622	1.5
188.872	2.369	23	67	SS	1	6.26	4	6.57	6	191.269	1.5
200.122	1.96	24	1	SS	1	37.69	0	38.07	2	202.105	1.5
209.43	1.578	25	27	SS	1	22.78	0	23.92	4	211.038	1.5
220.938	1.485	26	44	SS	1	22.39	2	24.62	4	222.455	1.5
225.488	1.856	27	35	SS	1	20.14	2	21.15	4	227.372	1.5
231.306	2.064	28	11	SS	1	24.85	0	26.09	2	233.389	1.5
238.903	1.76	29	28	SS	1	6.41	0	7.05	4	240.689	1.5
249.939	1.415	30	60	SS	1	6.45	2	7.1	6	251.382	1.5
257.372	1.44	31	7	LL	2	19.45	0	26.26	2	258.839	1.5
267.972	1.641	32	30	LL	2	25.92	0	32.4	4	269.639	1.5
277.573	3.05	33	51	SS	1	37.85	2	39.74	6	280.639	1.5
284.305	2.566	34	20	SS	1	30.4	0	33.44	4	286.889	1.5
295.989	1.438	35	40	LL	2	12.44	2	18.66	4	297.455	1.5
300.589	1.754	36	75	SS	1	20.18	4	21.19	6	302.372	1.5
306.322	2.22	37	52	LL	2	30.66	2	33.73	6	308.572	1.5
313.555	1.708	38	29	LL	2	32.7	0	37.6	4	315.289	1.5
318.922	2.086	39	48	LL	2	22.77	2	34.16	4	321.039	1.5
325.055	3.484	40	78	LL	2	18.61	4	23.27	6	328.556	1.5
338.572	2.452	41	34	SS	1	7.42	2	7.64	4	341.052	1.5
347.272	1.91	42	64	LL	2	26.95	2	40.42	6	349.205	1.5
354.639	3.01	43	42	SS	1	9.5	2	9.79	4	357.672	1.5
362.622	2.065	44	4	SS	1	13.42	0	14.77	2	364.722	1.5
372.439	3.453	45	37	LL	2	17.36	2	19.96	4	375.907	1.5
382.822	1.298	46	47	LL	2	20.07	2	27.1	4	384.139	1.5
388.772	1.361	47	14	LL	2	27.84	0	34.8	2	390.155	1.5
393.789	1.352	48	33	SS	1	25.56	2	25.82	4	395.172	1.5
399.705	1.461	49	55	LL	2	29.45	2	39.75	6	401.189	1.5
405.872	1.473	50	19	SS	1	28.48	0	29.91	4	407.372	1.5
410.039	1.491	51	54	LL	2	14.88	2	18.61	6	411.555	1.5
416.539	1.445	52	46	LL	2	30.77	2	38.46	4	418.022	1.5
423.491	2.042	53	6	LL	2	10.5	0	13.13	2	425.557	1.5
434.722	1.357	54	79	LL	2	14.58	4	19.68	6	436.106	1.5
440.789	1.939	55	23	SS	1	6.11	0	8.25	4	442.756	1.5
447.056	1.422	56	25	SS	1	9.89	0	9.99	4	448.506	1.5
455.972	1.487	57	32	LL	2	11.53	0	17.29	4	457.489	1.5
461.239	1.419	58	8	LL	2	14.49	0	21.74	2	462.689	1.5
466.572	2.332	59	69	LL	2	22.62	4	26.01	6	468.939	1.5
473.524	2.515	60	56	LL	2	26.96	2	40.44	6	476.056	1.5
479.872	1.33	61	72	LL	2	29.27	4	43.91	6	481.222	1.5
488.022	1.703	62	5	LL	2	32.79	0	37.71	2	489.752	1.5
501.072	1.583	63	53	LL	2	35.19	2	40.46	6	502.689	1.5
505.389	2.747	64	62	LL	2	25.3	2	31.63	6	508.172	1.5
517.989	2.045	65	12	SS	1	21.96	0	24.16	2	520.072	1.5
523.774	2.493	66	36	LL	2	18.11	2	19.92	4	526.29	1.5
531.256	1.529	67	21	SS	1	19.12	0	21.99	4	532.806	1.5
535.856	1.361	68	2	SS	1	24.28	0	25	2	537.239	1.5
542.206	1.382	69	16	LL	2	19.29	0	28.94	2	543.606	1.5
549.356	3.107	70	77	LL	2	25.13	4	28.9	6	552.489	1.5
557.956	1.316	71	66	SS	1	11.96	4	12.32	6	559.306	1.5
564.543	1.351	72	49	SS	1	23.7	2	23.94	6	565.922	1.5
571.091	1.491	73	26	SS	1	38.48	0	39.63	4	572.607	1.5
578.222	1.703	74	68	LL	2	25.55	4	28.11	6	579.939	1.5
584.489	1.647	75	24	LL	2	11.37	0	17.06	4	586.156	1.5
591.839	1.448	76	76	LL	2	22.92	4	25.21	6	593.306	1.5
596.689	1.597	77	10	SS	1	21.66	0	22.31	2	598.306	1.5
604.656	1.62	78	9	SS	1	22.32	0	22.54	2	606.306	1.5
616.423	1.302	79	39	LL	2	14.56	2	19.66	4	617.756	1.5
621.641	1.441	80	17	SS	1	22.32	0	22.55	4	623.107	1.5
