onset	duration	trial	trial_id	choice	choice_bin	magnitude_sooner	delay_sooner	magnitude_later	delay_later	onset_choice_fb	duration_choice_fb
13.138	1.407	1	34	SS	1	7.42	2	7.64	4	14.571	1.5
22.288	1.759	2	30	LL	2	25.92	0	32.4	4	24.071	1.5
29.721	2.148	3	61	LL	2	18.24	2	20.97	6	31.904	1.5
36.888	1.504	4	7	LL	2	19.45	0	26.26	2	38.421	1.5
43.154	1.896	5	71	LL	2	10.98	4	14.83	6	45.088	1.5
52.672	1.636	6	69	LL	2	22.62	4	26.01	6	54.321	1.5
58.604	1.424	7	4	SS	1	13.42	0	14.77	2	60.054	1.5
63.321	2.002	8	37	LL	2	17.36	2	19.96	4	65.351	1.5
69.638	1.673	9	15	LL	2	16.47	0	22.24	2	71.338	1.5
75.354	1.453	10	8	LL	2	14.49	0	21.74	2	76.838	1.5
79.554	1.665	11	3	SS	1	10.51	0	11.04	2	81.255	1.5
84.671	2.025	12	51	SS	1	37.85	2	39.74	6	86.721	1.5
95.654	1.532	13	40	LL	2	12.44	2	18.66	4	97.221	1.5
103.538	1.824	14	49	SS	1	23.7	2	23.94	6	105.388	1.5
108.571	1.669	15	47	LL	2	20.07	2	27.1	4	110.254	1.5
114.154	1.502	16	57	SS	1	28.25	2	28.53	6	115.684	1.5
118.4	1.777	17	33	SS	1	25.56	2	25.82	4	120.204	1.5
127.505	1.391	18	66	SS	1	11.96	4	12.32	6	128.921	1.5
133.721	1.537	19	14	LL	2	27.84	0	34.8	2	135.288	1.5
139.176	1.848	20	38	LL	2	32.44	2	40.55	4	141.055	1.5
145.621	1.363	21	79	LL	2	14.58	4	19.68	6	147.007	1.5
150.905	2.123	22	60	SS	1	6.45	2	7.1	6	153.055	1.5
158.705	2.008	23	42	SS	1	9.5	2	9.79	4	160.738	1.5
165.338	2.017	24	54	LL	2	14.88	2	18.61	6	167.371	1.5
170.188	1.617	25	41	SS	1	11.65	2	11.77	4	171.838	1.5
176.763	2.13	26	58	SS	1	12.69	2	13.07	6	178.921	1.5
185.605	1.644	27	22	LL	2	18.4	0	23	4	187.276	1.5
191.905	1.551	28	26	SS	1	38.48	0	39.63	4	193.488	1.5
197.723	1.826	29	23	LL	2	6.11	0	8.25	4	199.572	1.5
202.221	1.559	30	24	LL	2	11.37	0	17.06	4	203.805	1.5
211.971	1.821	31	53	LL	2	35.19	2	40.46	6	213.821	1.5
217.788	1.875	32	19	SS	1	28.48	0	29.91	4	219.688	1.5
226.405	1.841	33	39	LL	2	14.56	2	19.66	4	228.271	1.5
234.705	2.221	34	29	LL	2	32.7	0	37.6	4	236.955	1.5
242.505	1.845	35	68	LL	2	25.55	4	28.11	6	244.388	1.5
247.956	1.854	36	63	LL	2	25.61	2	34.57	6	249.838	1.5
256.155	1.495	37	10	SS	1	21.66	0	22.31	2	257.671	1.5
269.021	2.253	38	74	SS	1	13.42	4	13.82	6	271.305	1.5
279.088	1.663	39	9	SS	1	22.32	0	22.54	2	280.788	1.5
284.905	1.924	40	12	SS	1	21.96	0	24.16	2	286.855	1.5
293.957	2.338	41	56	LL	2	26.96	2	40.44	6	296.323	1.5
300.121	2.054	42	72	LL	2	29.27	4	43.91	6	302.204	1.5
305.621	1.564	43	18	SS	1	5.78	0	5.95	4	307.205	1.5
315.671	2.104	44	11	LL	2	24.85	0	26.09	2	317.805	1.5
327.671	1.957	45	27	SS	1	22.78	0	23.92	4	329.655	1.5
335.238	1.429	46	25	SS	1	9.89	0	9.99	4	336.705	1.5
340.621	1.99	47	6	LL	2	10.5	0	13.13	2	342.638	1.5
348.388	1.69	48	16	LL	2	19.29	0	28.94	2	350.105	1.5
355.121	1.68	49	76	LL	2	22.92	4	25.21	6	356.821	1.5
363.483	1.617	50	64	LL	2	26.95	2	40.42	6	365.121	1.5
368.338	2.031	51	75	SS	1	20.18	4	21.19	6	370.388	1.5
382.288	1.72	52	59	SS	1	11.17	2	11.73	6	384.038	1.5
387.871	1.888	53	77	LL	2	25.13	4	28.9	6	389.788	1.5
394.206	1.704	54	55	LL	2	29.45	2	39.75	6	395.938	1.5
406.138	1.77	55	52	LL	2	30.66	2	33.73	6	407.938	1.5
416.221	1.484	56	17	SS	1	22.32	0	22.55	4	417.738	1.5
422.005	1.957	57	36	SS	1	18.11	2	19.92	4	423.988	1.5
434.121	1.846	58	62	LL	2	25.3	2	31.63	6	436.005	1.5
439.688	1.808	59	78	LL	2	18.61	4	23.27	6	441.524	1.5
445.356	1.574	60	45	LL	2	36.8	2	42.32	4	446.955	1.5
453.705	1.276	61	48	LL	2	22.77	2	34.16	4	455.005	1.5
459.301	1.477	62	20	LL	2	30.4	0	33.44	4	460.805	1.5
464.905	1.712	63	70	LL	2	25.9	4	32.37	6	466.638	1.5
470.838	1.859	64	50	SS	1	20.53	2	21.14	6	472.721	1.5
478.505	1.86	65	1	SS	1	37.69	0	38.07	2	480.388	1.5
484.538	1.783	66	21	LL	2	19.12	0	21.99	4	486.355	1.5
489.938	2.041	67	46	LL	2	30.77	2	38.46	4	492.007	1.5
500.155	1.64	68	2	SS	1	24.28	0	25	2	501.821	1.5
507.205	1.571	69	80	LL	2	9.39	4	14.08	6	508.805	1.5
513.705	1.567	70	13	LL	2	16.21	0	18.64	2	515.299	1.5
523.138	1.881	71	5	LL	2	32.79	0	37.71	2	525.055	1.5
528.322	1.662	72	35	SS	1	20.14	2	21.15	4	530.021	1.5
535.155	1.463	73	65	SS	1	13.22	4	13.35	6	536.655	1.5
549.071	1.987	74	43	LL	2	24.99	2	26.24	4	551.072	1.5
554.488	2.156	75	44	LL	2	22.39	2	24.62	4	556.672	1.5
564.022	1.945	76	28	SS	1	6.41	0	7.05	4	565.988	1.5
571.005	1.662	77	32	LL	2	11.53	0	17.29	4	572.688	1.5
577.788	2.187	78	67	SS	1	6.26	4	6.57	6	580.005	1.5
585.022	1.71	79	31	LL	2	23.44	0	31.64	4	586.772	1.5
594.022	1.864	80	73	SS	1	9.59	4	9.68	6	595.905	1.5
