onset	duration	trial	trial_id	choice	choice_bin	magnitude_sooner	delay_sooner	magnitude_later	delay_later	onset_choice_fb	duration_choice_fb
14.405	2.703	1	52	LL	2	30.66	2	33.73	6	17.138	1.5
24.922	2.814	2	7	LL	2	19.45	0	26.26	2	27.772	1.5
33.507	2.817	3	66	SS	1	11.96	4	12.32	6	36.339	1.5
39.088	2.454	4	63	LL	2	25.61	2	34.57	6	41.555	1.5
45.205	2.471	5	25	SS	1	9.89	0	9.99	4	47.705	1.5
52.772	3.039	6	44	LL	2	22.39	2	24.62	4	55.838	1.5
58.855	2.028	7	19	SS	1	28.48	0	29.91	4	60.905	1.5
70.555	1.976	8	71	LL	2	10.98	4	14.83	6	72.555	1.5
76.938	2.024	9	77	LL	2	25.13	4	28.9	6	78.988	1.5
83.456	2.463	10	43	LL	2	24.99	2	26.24	4	85.939	1.5
90.205	1.602	11	48	LL	2	22.77	2	34.16	4	91.822	1.5
95.405	3.214	12	6	LL	2	10.5	0	13.13	2	98.638	1.5
102.605	1.926	13	37	LL	2	17.36	2	19.96	4	104.555	1.5
109.488	1.774	14	68	LL	2	25.55	4	28.11	6	111.288	1.5
116.322	3.815	15	5	SS	1	32.79	0	37.71	2	120.172	1.5
125.126	1.666	16	55	LL	2	29.45	2	39.75	6	126.822	1.5
131.823	2.765	17	12	SS	1	21.96	0	24.16	2	134.606	1.5
138.172	2.012	18	38	LL	2	32.44	2	40.55	4	140.205	1.5
148.038	1.756	19	23	LL	2	6.11	0	8.25	4	149.822	1.5
153.472	2.603	20	26	SS	1	38.48	0	39.63	4	156.105	1.5
165.722	3.931	21	57	SS	1	28.25	2	28.53	6	169.688	1.5
174.355	2.135	22	80	LL	2	9.39	4	14.08	6	176.522	1.5
181.856	4.387	23	13	SS	1	16.21	0	18.64	2	186.255	1.5
191.555	2.027	24	79	LL	2	14.58	4	19.68	6	193.605	1.5
197.172	2.266	25	17	SS	1	22.32	0	22.55	4	199.455	1.5
205.072	2.894	26	53	LL	2	35.19	2	40.46	6	207.988	1.5
212.389	2.078	27	29	SS	1	32.7	0	37.6	4	214.489	1.5
218.339	2.332	28	60	LL	2	6.45	2	7.1	6	220.705	1.5
225.855	2.563	29	32	LL	2	11.53	0	17.29	4	228.455	1.5
232.14	2.037	30	69	LL	2	22.62	4	26.01	6	234.206	1.5
240.805	2.02	31	61	LL	2	18.24	2	20.97	6	242.855	1.5
248.339	1.947	32	58	LL	2	12.69	2	13.07	6	250.305	1.5
253.772	1.814	33	8	LL	2	14.49	0	21.74	2	255.605	1.50000000000003
259.489	1.895	34	76	LL	2	22.92	4	25.21	6	261.405	1.5
264.589	1.6	35	39	LL	2	14.56	2	19.66	4	266.222	1.5
271.939	3.157	36	22	LL	2	18.4	0	23	4	275.122	1.5
278.974	2.037	37	56	LL	2	26.96	2	40.44	6	281.04	1.5
284.872	3.746	38	75	LL	2	20.18	4	21.19	6	288.639	1.5
294.039	4.491	39	21	SS	1	19.12	0	21.99	4	298.555	1.5
302.022	1.604	40	24	LL	2	11.37	0	17.06	4	303.655	1.5
310.772	4.216	41	42	LL	2	9.5	2	9.79	4	315.022	1.5
320.339	2.354	42	9	SS	1	22.32	0	22.54	2	322.722	1.5
325.922	2.49	43	16	LL	2	19.29	0	28.94	2	328.44	1.5
332.822	4.189	44	18	SS	1	5.78	0	5.95	4	337.039	1.5
344.605	3.132	45	35	SS	1	20.14	2	21.15	4	347.755	1.5
350.689	4.667	46	40	LL	2	12.44	2	18.66	4	355.389	1.5
358.28	3.345	47	73	SS	1	9.59	4	9.68	6	361.655	1.5
365.689	1.387	48	78	LL	2	18.61	4	23.27	6	367.105	1.5
372.889	2.317	49	28	SS	1	6.41	0	7.05	4	375.239	1.5
379.69	1.605	50	62	LL	2	25.3	2	31.63	6	381.323	1.5
387.872	1.478	51	14	LL	2	27.84	0	34.8	2	389.372	1.5
394.039	2.885	52	67	LL	2	6.26	4	6.57	6	396.955	1.5
400.305	2.687	53	4	SS	1	13.42	0	14.77	2	403.022	1.5
405.722	2.434	54	45	LL	2	36.8	2	42.32	4	408.189	1.5
418.622	2.174	55	1	SS	1	37.69	0	38.07	2	420.822	1.5
429.873	2.646	56	36	LL	2	18.11	2	19.92	4	432.539	1.5
437.072	2.511	57	51	SS	1	37.85	2	39.74	6	439.606	1.5
445.906	4.35	58	50	SS	1	20.53	2	21.14	6	450.289	1.5
457.072	2.207	59	20	SS	1	30.4	0	33.44	4	459.306	1.5
465.377	1.864	60	11	SS	1	24.85	0	26.09	2	467.272	1.5
471.189	3.107	61	74	SS	1	13.42	4	13.82	6	474.324	1.5
477.99	2.471	62	46	LL	2	30.77	2	38.46	4	480.489	1.5
486.322	2.161	63	54	LL	2	14.88	2	18.61	6	488.506	1.5
493.422	4.236	64	30	SS	1	25.92	0	32.4	4	497.689	1.5
504.306	2.825	65	34	SS	1	7.42	2	7.64	4	507.156	1.5
511.239	2.167	66	31	LL	2	23.44	0	31.64	4	513.439	1.5
519.956	3.274	67	49	SS	1	23.7	2	23.94	6	523.258	1.5
527.99	2.124	68	2	SS	1	24.28	0	25	2	530.139	1.5
536.239	3.354	69	65	LL	2	13.22	4	13.35	6	539.622	1.5
543.522	1.79	70	10	SS	1	21.66	0	22.31	2	545.339	1.5
547.922	2.213	71	27	SS	1	22.78	0	23.92	4	550.156	1.5
552.889	1.651	72	70	LL	2	25.9	4	32.37	6	554.572	1.5
560.046	2.158	73	47	LL	2	20.07	2	27.1	4	562.239	1.5
567.972	2.174	74	15	LL	2	16.47	0	22.24	2	570.172	1.5
576.557	4.322	75	33	SS	1	25.56	2	25.82	4	580.906	1.5
588.156	1.779	76	72	LL	2	29.27	4	43.91	6	589.956	1.5
594.389	3.602	77	59	SS	1	11.17	2	11.73	6	598.023	1.5
603.123	1.576	78	64	LL	2	26.95	2	40.42	6	604.723	1.5
612.006	2.108	79	41	SS	1	11.65	2	11.77	4	614.139	1.5
618.356	1.774	80	3	SS	1	10.51	0	11.04	2	620.156	1.5
