onset	duration	trial	trial_id	choice	choice_bin	magnitude_sooner	delay_sooner	magnitude_later	delay_later	onset_choice_fb	duration_choice_fb
13.876	2.022	1	29	SS	1	32.7	0	37.6	4	15.926	1.5
19.659	2.305	2	37	SS	1	17.36	2	19.96	4	21.993	1.5
30.243	1.942	3	16	LL	2	19.29	0	28.94	2	32.209	1.5
36.026	2.881	4	78	SS	1	18.61	4	23.27	6	38.943	1.5
49.976	2.582	5	54	SS	1	14.88	2	18.61	6	52.593	1.5
64.71	1.985	6	19	SS	1	28.48	0	29.91	4	66.71	1.5
73.143	2.952	7	31	LL	2	23.44	0	31.64	4	76.126	1.5
80.343	2.68	8	49	SS	1	23.7	2	23.94	6	83.043	1.5
94.46	4.352	9	73	LL	2	9.59	4	9.68	6	98.843	1.5
103.345	2.523	10	15	LL	2	16.47	0	22.24	2	105.894	1.5
111.143	2.931	11	10	LL	2	21.66	0	22.31	2	114.093	1.5
124.693	2.702	12	24	LL	2	11.37	0	17.06	4	127.426	1.49999999999999
132.61	2.409	13	12	LL	2	21.96	0	24.16	2	135.043	1.5
143.943	3.651	14	65	LL	2	13.22	4	13.35	6	147.626	1.5
151.612	1.926	15	7	LL	2	19.45	0	26.26	2	153.561	1.5
157.443	3.471	16	2	SS	1	24.28	0	25	2	160.926	1.5
168.943	3.9	17	63	LL	2	25.61	2	34.57	6	172.86	1.5
178.126	2.152	18	14	LL	2	27.84	0	34.8	2	180.31	1.5
190.743	2.559	19	64	LL	2	26.95	2	40.42	6	193.327	1.5
199.443	2.665	20	5	LL	2	32.79	0	37.71	2	202.128	1.5
206.643	3.661	21	76	LL	2	22.92	4	25.21	6	210.327	1.5
213.191	2.566	22	58	SS	1	12.69	2	13.07	6	215.777	1.5
226.377	2.704	23	57	SS	1	28.25	2	28.53	6	229.11	1.5
232.677	3.154	24	45	SS	1	36.8	2	42.32	4	235.86	1.5
239.877	3.413	25	52	SS	1	30.66	2	33.73	6	243.327	1.5
248.527	2.853	26	9	SS	1	22.32	0	22.54	2	251.395	1.5
256.327	2.895	27	55	LL	2	29.45	2	39.75	6	259.243	1.5
267.56	2.74	28	43	SS	1	24.99	2	26.24	4	270.327	1.5
274.393	2.809	29	4	LL	2	13.42	0	14.77	2	277.227	1.5
281.51	3.543	30	70	LL	2	25.9	4	32.37	6	285.077	1.5
292.893	2.516	31	59	SS	1	11.17	2	11.73	6	295.443	1.5
298.26	3.782	32	53	LL	2	35.19	2	40.46	6	302.061	1.5
306.177	2.163	33	26	SS	1	38.48	0	39.63	4	308.36	1.5
314.21	3.251	34	74	LL	2	13.42	4	13.82	6	317.477	1.5
320.86	2.378	35	69	LL	2	22.62	4	26.01	6	323.26	1.5
328.51	2.875	36	66	LL	2	11.96	4	12.32	6	331.41	1.5
339.343	3.269	37	62	SS	1	25.3	2	31.63	6	342.643	1.5
348.712	2.479	38	71	LL	2	10.98	4	14.83	6	351.211	1.5
362.044	2.63	39	27	SS	1	22.78	0	23.92	4	364.694	1.5
371.444	5	40	39	NA	NA	14.56	2	19.66	4	NA	NA
383.894	2.08	41	8	LL	2	14.49	0	21.74	2	386.01	1.5
390.227	2.384	42	72	LL	2	29.27	4	43.91	6	392.644	1.5
396.36	2.398	43	67	LL	2	6.26	4	6.57	6	398.779	1.5
401.878	3.295	44	32	LL	2	11.53	0	17.29	4	405.194	1.5
410.927	2.094	45	35	SS	1	20.14	2	21.15	4	413.044	1.5
417.077	1.822	46	21	SS	1	19.12	0	21.99	4	418.927	1.5
423.144	3.022	47	22	SS	1	18.4	0	23	4	426.194	1.5
433.744	2.218	48	41	SS	1	11.65	2	11.77	4	435.994	1.5
442.577	2.151	49	80	LL	2	9.39	4	14.08	6	444.76	1.5
449.262	3.12	50	42	SS	1	9.5	2	9.79	4	452.394	1.5
456.394	1.837	51	25	SS	1	9.89	0	9.99	4	458.259	1.5
462.86	2.463	52	36	SS	1	18.11	2	19.92	4	465.344	1.5
469.41	2.013	53	44	SS	1	22.39	2	24.62	4	471.444	1.5
483.377	3.447	54	3	SS	1	10.51	0	11.04	2	486.86	1.5
491.844	2.255	55	17	SS	1	22.32	0	22.55	4	494.127	1.5
497.429	3.687	56	48	LL	2	22.77	2	34.16	4	501.128	1.5
507.659	2.759	57	40	SS	1	12.44	2	18.66	4	510.444	1.5
514.477	2.278	58	34	SS	1	7.42	2	7.64	4	516.777	1.5
525.694	3.214	59	56	LL	2	26.96	2	40.44	6	528.944	1.5
536.927	2.234	60	20	SS	1	30.4	0	33.44	4	539.194	1.5
543.327	3.42	61	51	SS	1	37.85	2	39.74	6	546.762	1.5
555.061	3.354	62	13	LL	2	16.21	0	18.64	2	558.444	1.5
567.477	2.524	63	77	LL	2	25.13	4	28.9	6	570.027	1.5
575.127	2.073	64	11	SS	1	24.85	0	26.09	2	577.227	1.5
589.264	2.151	65	50	SS	1	20.53	2	21.14	6	591.444	1.5
598.711	2.825	66	61	SS	1	18.24	2	20.97	6	601.561	1.5
607.061	2.766	67	30	SS	1	25.92	0	32.4	4	609.844	1.5
620.561	2.003	68	1	SS	1	37.69	0	38.07	2	622.594	1.5
627.644	2.295	69	68	LL	2	25.55	4	28.11	6	629.961	1.5
635.644	3.975	70	23	LL	2	6.11	0	8.25	4	639.644	1.5
642.713	2.463	71	33	SS	1	25.56	2	25.82	4	645.196	1.5
651.394	2.53	72	60	SS	1	6.45	2	7.1	6	653.944	1.5
659.144	2.409	73	6	LL	2	10.5	0	13.13	2	661.578	1.5
669.921	2.628	74	18	SS	1	5.78	0	5.95	4	672.578	1.5
677.978	3.252	75	38	SS	1	32.44	2	40.55	4	681.261	1.5
686.644	2.444	76	28	SS	1	6.41	0	7.05	4	689.128	1.5
693.263	3.612	77	75	LL	2	20.18	4	21.19	6	696.895	1.5
701.528	2.816	78	79	LL	2	14.58	4	19.68	6	704.361	1.5
708.028	3.312	79	47	SS	1	20.07	2	27.1	4	711.361	1.5
714.278	3.479	80	46	SS	1	30.77	2	38.46	4	717.778	1.5
