onset	duration	balloon_number	balloon_idx	response	pumps	pumps_demean_all	pumps_demean_type	balloon_type	balloon_outcome	balloon_maxpumps	balloon_colour	balloon_payoff_cumulative	balloon_payoff_total	onset_explosion	duration_explosion
4.067	3.414	1	1	pump	5	-4.55172413793103	-3.5	linear	explosion	5	blue	0.1	0	NA	NA
9.101	0.824	1	2	pump	5	-3.55172413793103	-2.5	linear	explosion	5	blue	0.2	0	NA	NA
11.985	1.806	1	3	pump	5	-2.55172413793103	-1.5	linear	explosion	5	blue	0.3	0	NA	NA
15.235	2.212	1	4	pump	5	-1.55172413793103	-0.5	linear	explosion	5	blue	0.4	0	NA	NA
19.151	1.533	1	5	pump	5	NA	NA	linear	explosion	5	blue	0.5	0	22.568	2
27.051	1.012	2	1	pump	16	-4.55172413793103	-7.88888888888889	control	control	16	grey	0	0	NA	NA
29.551	0.645	2	2	pump	16	-3.55172413793103	-6.88888888888889	control	control	16	grey	0	0	NA	NA
31.474	0.859	2	3	pump	16	-2.55172413793103	-5.88888888888889	control	control	16	grey	0	0	NA	NA
34.268	0.622	2	4	pump	16	-1.55172413793103	-4.88888888888889	control	control	16	grey	0	0	NA	NA
36.335	0.758	2	5	pump	16	-0.551724137931035	-3.88888888888889	control	control	16	grey	0	0	NA	NA
38.501	1.297	2	6	pump	16	0.448275862068965	-2.88888888888889	control	control	16	grey	0	0	NA	NA
41.118	0.825	2	7	pump	16	1.44827586206897	-1.88888888888889	control	control	16	grey	0	0	NA	NA
43.22	0.974	2	8	pump	16	2.44827586206897	-0.888888888888889	control	control	16	grey	0	0	NA	NA
45.786	0.897	2	9	pump	16	3.44827586206897	0.111111111111111	control	control	16	grey	0	0	NA	NA
48.735	0.632	2	10	pump	16	4.44827586206897	1.11111111111111	control	control	16	grey	0	0	NA	NA
51.018	0.928	2	11	pump	16	5.44827586206897	2.11111111111111	control	control	16	grey	0	0	NA	NA
53.201	0.78	2	12	pump	16	6.44827586206897	3.11111111111111	control	control	16	grey	0	0	NA	NA
55.201	1.019	2	13	pump	16	7.44827586206897	4.11111111111111	control	control	16	grey	0	0	NA	NA
57.685	1.088	2	14	pump	16	8.44827586206896	5.11111111111111	control	control	16	grey	0	0	NA	NA
60.618	0.994	2	15	pump	16	9.44827586206896	6.11111111111111	control	control	16	grey	0	0	NA	NA
63.535	1.098	2	16	pump	16	10.448275862069	7.11111111111111	control	control	16	grey	0	0	NA	NA
76.185	1.048	3	1	pump	4	-4.55172413793103	-2.6	exponential	cashout	6	red	0.01	0.18	NA	NA
78.318	0.837	3	2	pump	4	-3.55172413793103	-1.6	exponential	cashout	6	red	0.0428709385014517	0.18	NA	NA
80.535	1.054	3	3	pump	4	-2.55172413793103	-0.6	exponential	cashout	6	red	0.100451085663051	0.18	NA	NA
83.035	0.929	3	4	pump	4	-1.55172413793103	0.4	exponential	cashout	6	red	0.183791736799526	0.18	NA	NA
85.818	1.124	3	5	cashout	4	NA	NA	exponential	cashout	6	red	0.293654735772005	0.18	NA	NA
94.669	0.801	4	1	pump	6	-4.55172413793103	-7.88888888888889	control	control	6	grey	0	0	NA	NA
97.218	0.993	4	2	pump	6	-3.55172413793103	-6.88888888888889	control	control	6	grey	0	0	NA	NA
99.568	0.765	4	3	pump	6	-2.55172413793103	-5.88888888888889	control	control	6	grey	0	0	NA	NA
102.385	0.892	4	4	pump	6	-1.55172413793103	-4.88888888888889	control	control	6	grey	0	0	NA	NA
104.435	0.822	4	5	pump	6	-0.551724137931035	-3.88888888888889	control	control	6	grey	0	0	NA	NA
106.385	1.045	4	6	pump	6	0.448275862068965	-2.88888888888889	control	control	6	grey	0	0	NA	NA
110.285	1.1	5	1	pump	2	-4.55172413793103	-2.6	exponential	explosion	2	red	0.01	0	NA	NA
113.418	0.77	5	2	pump	2	NA	NA	exponential	explosion	2	red	0.0428709385014517	0	115.518	2
125.335	1.998	6	1	pump	3	-4.55172413793103	-3.5	linear	explosion	3	blue	0.1	0	NA	NA
129.135	1.094	6	2	pump	3	-3.55172413793103	-2.5	linear	explosion	3	blue	0.2	0	NA	NA
131.418	1.239	6	3	pump	3	NA	NA	linear	explosion	3	blue	0.3	0	134.685	2
139.485	1.014	7	1	pump	1	NA	NA	exponential	explosion	1	red	0.01	0	142.236	2
149.018	0.719	8	1	pump	5	-4.55172413793103	-3.5	linear	cashout	7	blue	0.1	0.5	NA	NA
151.501	0.944	8	2	pump	5	-3.55172413793103	-2.5	linear	cashout	7	blue	0.2	0.5	NA	NA
153.951	0.783	8	3	pump	5	-2.55172413793103	-1.5	linear	cashout	7	blue	0.3	0.5	NA	NA
156.368	0.755	8	4	pump	5	-1.55172413793103	-0.5	linear	cashout	7	blue	0.4	0.5	NA	NA
158.818	1.51	8	5	pump	5	-0.551724137931035	0.5	linear	cashout	7	blue	0.5	0.5	NA	NA
161.718	1.097	8	6	cashout	5	NA	NA	linear	cashout	7	blue	0.6	0.5	NA	NA
168.268	0.89	9	1	pump	10	-4.55172413793103	-7.88888888888889	control	control	10	grey	0	0	NA	NA
170.551	0.895	9	2	pump	10	-3.55172413793103	-6.88888888888889	control	control	10	grey	0	0	NA	NA
172.785	0.743	9	3	pump	10	-2.55172413793103	-5.88888888888889	control	control	10	grey	0	0	NA	NA
174.935	0.54	9	4	pump	10	-1.55172413793103	-4.88888888888889	control	control	10	grey	0	0	NA	NA
176.768	0.415	9	5	pump	10	-0.551724137931035	-3.88888888888889	control	control	10	grey	0	0	NA	NA
178.568	0.921	9	6	pump	10	0.448275862068965	-2.88888888888889	control	control	10	grey	0	0	NA	NA
180.935	0.439	9	7	pump	10	1.44827586206897	-1.88888888888889	control	control	10	grey	0	0	NA	NA
183.401	1.934	9	8	pump	10	2.44827586206897	-0.888888888888889	control	control	10	grey	0	0	NA	NA
187.168	1.156	9	9	pump	10	3.44827586206897	0.111111111111111	control	control	10	grey	0	0	NA	NA
190.351	0.789	9	10	pump	10	4.44827586206897	1.11111111111111	control	control	10	grey	0	0	NA	NA
194.535	0.987	10	1	pump	7	-4.55172413793103	-7.88888888888889	control	control	7	grey	0	0	NA	NA
197.235	0.736	10	2	pump	7	-3.55172413793103	-6.88888888888889	control	control	7	grey	0	0	NA	NA
199.417	0.706	10	3	pump	7	-2.55172413793103	-5.88888888888889	control	control	7	grey	0	0	NA	NA
201.201	0.829	10	4	pump	7	-1.55172413793103	-4.88888888888889	control	control	7	grey	0	0	NA	NA
203.351	0.794	10	5	pump	7	-0.551724137931035	-3.88888888888889	control	control	7	grey	0	0	NA	NA
205.385	0.666	10	6	pump	7	0.448275862068965	-2.88888888888889	control	control	7	grey	0	0	NA	NA
207.151	0.725	10	7	pump	7	1.44827586206897	-1.88888888888889	control	control	7	grey	0	0	NA	NA
212.285	1.05	11	1	pump	1	NA	NA	exponential	explosion	1	red	0.01	0	214.635	2
223.735	0.824	12	1	pump	5	-4.55172413793103	-3.5	linear	cashout	16	blue	0.1	0.5	NA	NA
226.468	0.558	12	2	pump	5	-3.55172413793103	-2.5	linear	cashout	16	blue	0.2	0.5	NA	NA
228.985	0.88	12	3	pump	5	-2.55172413793103	-1.5	linear	cashout	16	blue	0.3	0.5	NA	NA
231.768	0.757	12	4	pump	5	-1.55172413793103	-0.5	linear	cashout	16	blue	0.4	0.5	NA	NA
233.835	1.594	12	5	pump	5	-0.551724137931035	0.5	linear	cashout	16	blue	0.5	0.5	NA	NA
237.437	0.912	12	6	cashout	5	NA	NA	linear	cashout	16	blue	0.6	0.5	NA	NA
248.951	1.121	13	1	pump	3	-4.55172413793103	-3.5	linear	explosion	3	blue	0.1	0	NA	NA
251.568	0.659	13	2	pump	3	-3.55172413793103	-2.5	linear	explosion	3	blue	0.2	0	NA	NA
253.351	0.977	13	3	pump	3	NA	NA	linear	explosion	3	blue	0.3	0	256.251	2
259.401	1.038	14	1	pump	11	-4.55172413793103	-7.88888888888889	control	control	11	grey	0	0	NA	NA
262.051	0.806	14	2	pump	11	-3.55172413793103	-6.88888888888889	control	control	11	grey	0	0	NA	NA
263.995	1.085	14	3	pump	11	-2.55172413793103	-5.88888888888889	control	control	11	grey	0	0	NA	NA
266.551	1.028	14	4	pump	11	-1.55172413793103	-4.88888888888889	control	control	11	grey	0	0	NA	NA
268.951	0.854	14	5	pump	11	-0.551724137931035	-3.88888888888889	control	control	11	grey	0	0	NA	NA
271.851	0.841	14	6	pump	11	0.448275862068965	-2.88888888888889	control	control	11	grey	0	0	NA	NA
274.551	1.18	14	7	pump	11	1.44827586206897	-1.88888888888889	control	control	11	grey	0	0	NA	NA
277.151	1.642	14	8	pump	11	2.44827586206897	-0.888888888888889	control	control	11	grey	0	0	NA	NA
280.468	1.133	14	9	pump	11	3.44827586206897	0.111111111111111	control	control	11	grey	0	0	NA	NA
283.085	0.962	14	10	pump	11	4.44827586206897	1.11111111111111	control	control	11	grey	0	0	NA	NA
285.251	1.306	14	11	pump	11	5.44827586206897	2.11111111111111	control	control	11	grey	0	0	NA	NA
292.619	0.992	15	1	pump	6	-4.55172413793103	-2.6	exponential	cashout	10	red	0.01	0.43	NA	NA
295.368	1.034	15	2	pump	6	-3.55172413793103	-1.6	exponential	cashout	10	red	0.0428709385014517	0.43	NA	NA
298.235	0.841	15	3	pump	6	-2.55172413793103	-0.6	exponential	cashout	10	red	0.100451085663051	0.43	NA	NA
300.868	0.795	15	4	pump	6	-1.55172413793103	0.4	exponential	cashout	10	red	0.183791736799526	0.43	NA	NA
303.535	1.02	15	5	pump	6	-0.551724137931035	1.4	exponential	cashout	10	red	0.293654735772005	0.43	NA	NA
306.101	0.822	15	6	pump	6	0.448275862068965	2.4	exponential	cashout	10	red	0.430643231586474	0.43	NA	NA
308.668	3.556	15	7	cashout	6	NA	NA	exponential	cashout	10	red	0.595258881579143	0.43	NA	NA
319.668	1.004	16	1	pump	1	NA	NA	linear	explosion	1	blue	0.1	0	322.209	2
327.951	0.852	17	1	pump	1	-4.55172413793103	-7.88888888888889	control	control	1	grey	0	0	NA	NA
333.168	0.773	18	1	pump	4	-4.55172413793103	-2.6	exponential	explosion	4	red	0.01	0	NA	NA
335.468	0.911	18	2	pump	4	-3.55172413793103	-1.6	exponential	explosion	4	red	0.0428709385014517	0	NA	NA
338.103	0.996	18	3	pump	4	-2.55172413793103	-0.6	exponential	explosion	4	red	0.100451085663051	0	NA	NA
340.969	1.079	18	4	pump	4	NA	NA	exponential	explosion	4	red	0.183791736799526	0	343.985	2
354.785	1.156	19	1	pump	5	-4.55172413793103	-3.5	linear	explosion	5	blue	0.1	0	NA	NA
357.735	1.577	19	2	pump	5	-3.55172413793103	-2.5	linear	explosion	5	blue	0.2	0	NA	NA
361.301	1.008	19	3	pump	5	-2.55172413793103	-1.5	linear	explosion	5	blue	0.3	0	NA	NA
364.051	2.212	19	4	pump	5	-1.55172413793103	-0.5	linear	explosion	5	blue	0.4	0	NA	NA
367.735	3.617	19	5	pump	5	NA	NA	linear	explosion	5	blue	0.5	0	372.685	2
377.601	0.83	20	1	pump	14	-4.55172413793103	-7.88888888888889	control	control	14	grey	0	0	NA	NA
379.635	1.101	20	2	pump	14	-3.55172413793103	-6.88888888888889	control	control	14	grey	0	0	NA	NA
381.851	1.322	20	3	pump	14	-2.55172413793103	-5.88888888888889	control	control	14	grey	0	0	NA	NA
385.185	0.546	20	4	pump	14	-1.55172413793103	-4.88888888888889	control	control	14	grey	0	0	NA	NA
386.82	1.03	20	5	pump	14	-0.551724137931035	-3.88888888888889	control	control	14	grey	0	0	NA	NA
389.436	0.773	20	6	pump	14	0.448275862068965	-2.88888888888889	control	control	14	grey	0	0	NA	NA
391.568	1.416	20	7	pump	14	1.44827586206897	-1.88888888888889	control	control	14	grey	0	0	NA	NA
394.468	0.91	20	8	pump	14	2.44827586206897	-0.888888888888889	control	control	14	grey	0	0	NA	NA
397.385	1.077	20	9	pump	14	3.44827586206897	0.111111111111111	control	control	14	grey	0	0	NA	NA
400.499	0.895	20	10	pump	14	4.44827586206897	1.11111111111111	control	control	14	grey	0	0	NA	NA
403.035	0.997	20	11	pump	14	5.44827586206897	2.11111111111111	control	control	14	grey	0	0	NA	NA
405.635	0.696	20	12	pump	14	6.44827586206897	3.11111111111111	control	control	14	grey	0	0	NA	NA
408.201	0.749	20	13	pump	14	7.44827586206897	4.11111111111111	control	control	14	grey	0	0	NA	NA
410.485	0.641	20	14	pump	14	8.44827586206896	5.11111111111111	control	control	14	grey	0	0	NA	NA
415.268	2.533	21	1	pump	3	-4.55172413793103	-2.6	exponential	cashout	6	red	0.01	0.1	NA	NA
418.901	0.993	21	2	pump	3	-3.55172413793103	-1.6	exponential	cashout	6	red	0.0428709385014517	0.1	NA	NA
421.235	0.91	21	3	pump	3	-2.55172413793103	-0.6	exponential	cashout	6	red	0.100451085663051	0.1	NA	NA
424.051	0.865	21	4	cashout	3	NA	NA	exponential	cashout	6	red	0.183791736799526	0.1	NA	NA
431.568	0.587	22	1	pump	5	-4.55172413793103	-2.6	exponential	cashout	9	red	0.01	0.29	NA	NA
433.385	0.871	22	2	pump	5	-3.55172413793103	-1.6	exponential	cashout	9	red	0.0428709385014517	0.29	NA	NA
435.737	0.808	22	3	pump	5	-2.55172413793103	-0.6	exponential	cashout	9	red	0.100451085663051	0.29	NA	NA
437.636	0.803	22	4	pump	5	-1.55172413793103	0.4	exponential	cashout	9	red	0.183791736799526	0.29	NA	NA
439.669	1.174	22	5	pump	5	-0.551724137931035	1.4	exponential	cashout	9	red	0.293654735772005	0.29	NA	NA
442.485	0.686	22	6	cashout	5	NA	NA	exponential	cashout	9	red	0.430643231586474	0.29	NA	NA
447.685	0.921	23	1	pump	6	-4.55172413793103	-7.88888888888889	control	control	6	grey	0	0	NA	NA
450.168	0.512	23	2	pump	6	-3.55172413793103	-6.88888888888889	control	control	6	grey	0	0	NA	NA
452.135	0.526	23	3	pump	6	-2.55172413793103	-5.88888888888889	control	control	6	grey	0	0	NA	NA
454.335	0.63	23	4	pump	6	-1.55172413793103	-4.88888888888889	control	control	6	grey	0	0	NA	NA
456.618	0.978	23	5	pump	6	-0.551724137931035	-3.88888888888889	control	control	6	grey	0	0	NA	NA
459.235	0.683	23	6	pump	6	0.448275862068965	-2.88888888888889	control	control	6	grey	0	0	NA	NA
466.985	0.87	24	1	pump	5	-4.55172413793103	-3.5	linear	cashout	13	blue	0.1	0.5	NA	NA
469.218	1.548	24	2	pump	5	-3.55172413793103	-2.5	linear	cashout	13	blue	0.2	0.5	NA	NA
472.535	1.153	24	3	pump	5	-2.55172413793103	-1.5	linear	cashout	13	blue	0.3	0.5	NA	NA
475.235	1.127	24	4	pump	5	-1.55172413793103	-0.5	linear	cashout	13	blue	0.4	0.5	NA	NA
477.701	1.278	24	5	pump	5	-0.551724137931035	0.5	linear	cashout	13	blue	0.5	0.5	NA	NA
480.801	2.219	24	6	cashout	5	NA	NA	linear	cashout	13	blue	0.6	0.5	NA	NA
496.233	1.058	25	1	pump	9	-4.55172413793103	-7.88888888888889	control	control	9	grey	0	0	NA	NA
499.285	1.526	25	2	pump	9	-3.55172413793103	-6.88888888888889	control	control	9	grey	0	0	NA	NA
502.797	0.69	25	3	pump	9	-2.55172413793103	-5.88888888888889	control	control	9	grey	0	0	NA	NA
504.813	1.592	25	4	pump	9	-1.55172413793103	-4.88888888888889	control	control	9	grey	0	0	NA	NA
507.601	0.826	25	5	pump	9	-0.551724137931035	-3.88888888888889	control	control	9	grey	0	0	NA	NA
510.218	0.744	25	6	pump	9	0.448275862068965	-2.88888888888889	control	control	9	grey	0	0	NA	NA
512.485	2.102	25	7	pump	9	1.44827586206897	-1.88888888888889	control	control	9	grey	0	0	NA	NA
516.418	1.373	25	8	pump	9	2.44827586206897	-0.888888888888889	control	control	9	grey	0	0	NA	NA
519.268	1.189	25	9	pump	9	3.44827586206897	0.111111111111111	control	control	9	grey	0	0	NA	NA
525.051	0.918	26	1	pump	6	-4.55172413793103	-3.5	linear	cashout	9	blue	0.1	0.6	NA	NA
527.818	0.606	26	2	pump	6	-3.55172413793103	-2.5	linear	cashout	9	blue	0.2	0.6	NA	NA
529.768	0.858	26	3	pump	6	-2.55172413793103	-1.5	linear	cashout	9	blue	0.3	0.6	NA	NA
531.885	0.758	26	4	pump	6	-1.55172413793103	-0.5	linear	cashout	9	blue	0.4	0.6	NA	NA
534.303	0.866	26	5	pump	6	-0.551724137931035	0.5	linear	cashout	9	blue	0.5	0.6	NA	NA
536.636	1.479	26	6	pump	6	0.448275862068965	1.5	linear	cashout	9	blue	0.6	0.6	NA	NA
539.185	0.79	26	7	cashout	6	NA	NA	linear	cashout	9	blue	0.7	0.6	NA	NA
548.518	0.947	27	1	pump	5	-4.55172413793103	-2.6	exponential	cashout	12	red	0.01	0.29	NA	NA
551.401	0.626	27	2	pump	5	-3.55172413793103	-1.6	exponential	cashout	12	red	0.0428709385014517	0.29	NA	NA
554.063	0.896	27	3	pump	5	-2.55172413793103	-0.6	exponential	cashout	12	red	0.100451085663051	0.29	NA	NA
556.585	1.06	27	4	pump	5	-1.55172413793103	0.4	exponential	cashout	12	red	0.183791736799526	0.29	NA	NA
559.418	1.553	27	5	pump	5	-0.551724137931035	1.4	exponential	cashout	12	red	0.293654735772005	0.29	NA	NA
562.218	0.984	27	6	cashout	5	NA	NA	exponential	cashout	12	red	0.430643231586474	0.29	NA	NA
569.318	0.87	28	1	pump	5	-4.55172413793103	-2.6	exponential	cashout	12	red	0.01	0.29	NA	NA
571.735	1.233	28	2	pump	5	-3.55172413793103	-1.6	exponential	cashout	12	red	0.0428709385014517	0.29	NA	NA
574.618	0.677	28	3	pump	5	-2.55172413793103	-0.6	exponential	cashout	12	red	0.100451085663051	0.29	NA	NA
577.051	0.837	28	4	pump	5	-1.55172413793103	0.4	exponential	cashout	12	red	0.183791736799526	0.29	NA	NA
579.885	2.692	28	5	pump	5	-0.551724137931035	1.4	exponential	cashout	12	red	0.293654735772005	0.29	NA	NA
584.02	1.453	28	6	cashout	5	NA	NA	exponential	cashout	12	red	0.430643231586474	0.29	NA	NA
590.001	0.803	29	1	pump	7	-4.55172413793103	-3.5	linear	cashout	14	blue	0.1	0.7	NA	NA
592.601	0.672	29	2	pump	7	-3.55172413793103	-2.5	linear	cashout	14	blue	0.2	0.7	NA	NA
594.416	0.901	29	3	pump	7	-2.55172413793103	-1.5	linear	cashout	14	blue	0.3	0.7	NA	NA
596.668	0.648	29	4	pump	7	-1.55172413793103	-0.5	linear	cashout	14	blue	0.4	0.7	NA	NA
599.101	1.504	29	5	pump	7	-0.551724137931035	0.5	linear	cashout	14	blue	0.5	0.7	NA	NA
601.901	1.667	29	6	pump	7	0.448275862068965	1.5	linear	cashout	14	blue	0.6	0.7	NA	NA
604.701	1.84	29	7	pump	7	1.44827586206897	2.5	linear	cashout	14	blue	0.7	0.7	NA	NA
608.601	0.862	29	8	cashout	7	NA	NA	linear	cashout	14	blue	0.8	0.7	NA	NA
