onset	duration	trial	trial_id	choice	choice_bin	magnitude_sooner	delay_sooner	magnitude_later	delay_later	onset_choice_fb	duration_choice_fb
13.442	1.675	1	19	SS	1	28.48	0	29.91	4	15.141	1.5
18.557	2.431	2	63	LL	2	25.61	2	34.57	6	21.006	1.5
24.988	1.606	3	7	LL	2	19.45	0	26.26	2	26.621	1.5
32.052	1.319	4	27	SS	1	22.78	0	23.92	4	33.385	1.5
45.231	2.404	5	22	LL	2	18.4	0	23	4	47.647	1.5
52.112	2.43	6	35	SS	1	20.14	2	21.15	4	54.561	1.5
65.841	1.604	7	56	LL	2	26.96	2	40.44	6	67.457	1.5
71.405	1.624	8	44	SS	1	22.39	2	24.62	4	73.055	1.5
76.97	2.032	9	71	LL	2	10.98	4	14.83	6	79.02	1.5
85.451	1.712	10	18	SS	1	5.78	0	5.95	4	87.183	1.5
94.464	1.724	11	39	LL	2	14.56	2	19.66	4	96.214	1.5
101.195	2.445	12	54	LL	2	14.88	2	18.61	6	103.661	1.5
110.642	1.844	13	33	SS	1	25.56	2	25.82	4	112.508	1.5
116.39	2.358	14	61	LL	2	18.24	2	20.97	6	118.773	1.5
123.455	2.078	15	11	SS	1	24.85	0	26.09	2	125.554	1.5
135.9	1.343	16	8	LL	2	14.49	0	21.74	2	137.267	1.5
143.764	1.496	17	41	SS	1	11.65	2	11.77	4	145.281	1.5
150.829	3.465	18	67	SS	1	6.26	4	6.57	6	154.311	1.5
158.076	2.11	19	68	LL	2	25.55	4	28.11	6	160.209	1.5
165.074	1.492	20	3	SS	1	10.51	0	11.04	2	166.59	1.5
169.622	1.585	21	9	SS	1	22.32	0	22.54	2	171.222	1.5
179.352	1.536	22	23	LL	2	6.11	0	8.25	4	180.902	1.5
183.918	1.444	23	16	LL	2	19.29	0	28.94	2	185.384	1.5
189.916	2.483	24	52	SS	1	30.66	2	33.73	6	192.415	1.5
197.513	2.333	25	49	SS	1	23.7	2	23.94	6	199.862	1.5
204.027	1.32	26	15	LL	2	16.47	0	22.24	2	205.36	1.5
210.192	1.851	27	57	SS	1	28.25	2	28.53	6	212.058	1.5
220.972	1.725	28	13	LL	2	16.21	0	18.64	2	222.721	1.5
231.052	1.537	29	25	SS	1	9.89	0	9.99	4	232.601	1.5
235.15	2.197	30	77	LL	2	25.13	4	28.9	6	237.366	1.5
243.981	2.412	31	12	LL	2	21.96	0	24.16	2	246.413	1.5
249.395	2.444	32	43	SS	1	24.99	2	26.24	4	251.861	1.5
256.443	3.129	33	51	SS	1	37.85	2	39.74	6	259.592	1.5
268.206	1.428	34	31	LL	2	23.44	0	31.64	4	269.655	1.5
274.204	2.358	35	21	LL	2	19.12	0	21.99	4	276.586	1.5
284.884	1.808	36	14	LL	2	27.84	0	34.8	2	286.716	1.5
294.747	1.605	37	65	SS	1	13.22	4	13.35	6	296.38	1.5
303.794	1.639	38	73	SS	1	9.59	4	9.68	6	305.46	1.5
310.408	1.592	39	69	LL	2	22.62	4	26.01	6	312.024	1.5
316.606	2.748	40	4	LL	2	13.42	0	14.77	2	319.372	1.5
326.803	2.485	41	66	LL	2	11.96	4	12.32	6	329.302	1.5
335.217	2.129	42	46	LL	2	30.77	2	38.46	4	337.366	1.5
345.13	2.088	43	37	LL	2	17.36	2	19.96	4	347.246	1.5
352.161	1.909	44	47	LL	2	20.07	2	27.1	4	354.094	1.5
356.776	2.287	45	6	LL	2	10.5	0	13.13	2	359.075	1.5
366.289	2.928	46	53	LL	2	35.19	2	40.46	6	369.238	1.5
374.203	1.858	47	78	LL	2	18.61	4	23.27	6	376.086	1.5
382.784	1.567	48	38	LL	2	32.44	2	40.55	4	384.367	1.5
395.696	2.349	49	5	LL	2	32.79	0	37.71	2	398.062	1.5
407.209	1.564	50	24	LL	2	11.37	0	17.06	4	408.792	1.5
420.454	2.123	51	26	SS	1	38.48	0	39.63	4	422.604	1.5
426.619	1.972	52	28	SS	1	6.41	0	7.05	4	428.618	1.5
436.766	3.082	53	74	LL	2	13.42	4	13.82	6	439.865	1.5
449.062	1.707	54	1	SS	1	37.69	0	38.07	2	450.794	1.5
458.442	2.828	55	58	SS	1	12.69	2	13.07	6	461.291	1.5
466.722	2.48	56	36	LL	2	18.11	2	19.92	4	469.221	1.5
477.102	1.473	57	50	SS	1	20.53	2	21.14	6	478.602	1.5
484.233	1.364	58	59	SS	1	11.17	2	11.73	6	485.616	1.5
490.364	1.557	59	48	LL	2	22.77	2	34.16	4	491.947	1.5
496.312	1.975	60	45	LL	2	36.8	2	42.32	4	498.312	1.5
504.21	1.439	61	40	LL	2	12.44	2	18.66	4	505.676	1.5
513.157	3.576	62	30	LL	2	25.92	0	32.4	4	516.755	1.5
527.252	1.822	63	76	LL	2	22.92	4	25.21	6	529.101	1.5
533.433	1.475	64	72	LL	2	29.27	4	43.91	6	534.933	1.5
540.147	1.763	65	80	LL	2	9.39	4	14.08	6	541.93	1.5
551.277	1.627	66	2	SS	1	24.28	0	25	2	552.927	1.5
562.39	1.445	67	79	LL	2	14.58	4	19.68	6	563.856	1.5
576.369	1.881	68	42	SS	1	9.5	2	9.79	4	578.268	1.5
583.016	1.28	69	64	LL	2	26.95	2	40.42	6	584.316	1.5
588.881	1.858	70	70	LL	2	25.9	4	32.37	6	590.764	1.5
594.912	1.941	71	75	SS	1	20.18	4	21.19	6	596.878	1.5
606.042	1.436	72	55	LL	2	29.45	2	39.75	6	607.491	1.5
616.572	1.39	73	34	SS	1	7.42	2	7.64	4	617.988	1.5
622.353	2.052	74	20	SS	1	30.4	0	33.44	4	624.419	1.5
627.118	3.245	75	62	LL	2	25.3	2	31.63	6	630.384	1.5
639.997	1.449	76	32	LL	2	11.53	0	17.29	4	641.463	1.5
644.912	2.923	77	60	SS	1	6.45	2	7.1	6	647.861	1.5
652.26	1.823	78	29	LL	2	32.7	0	37.6	4	654.109	1.5
658.574	1.703	79	10	SS	1	21.66	0	22.31	2	660.29	1.5
666.455	1.397	80	17	SS	1	22.32	0	22.55	4	667.871	1.5
