onset	duration	trial	trial_id	choice	choice_bin	magnitude_sooner	delay_sooner	magnitude_later	delay_later	onset_choice_fb	duration_choice_fb
15.598	1.856	1	67	SS	1	6.26	4	6.57	6	17.482	1.5
21.598	1.835	2	61	SS	1	18.24	2	20.97	6	23.465	1.5
30.384	2.135	3	73	SS	1	9.59	4	9.68	6	32.533	1.5
36.948	1.716	4	77	LL	2	25.13	4	28.9	6	38.682	1.5
41.232	2.87	5	52	LL	2	30.66	2	33.73	6	44.129	1.5
56.248	5	6	41	NA	NA	11.65	2	11.77	4	NA	NA
63.615	1.43	7	72	LL	2	29.27	4	43.91	6	65.082	1.5
69.098	1.748	8	76	LL	2	22.92	4	25.21	6	70.882	1.5
73.465	1.805	9	13	LL	2	16.21	0	18.64	2	75.298	1.5
78.934	3.174	10	2	SS	1	24.28	0	25	2	82.133	1.5
85.432	1.304	11	48	LL	2	22.77	2	34.16	4	86.764	1.5
92.098	1.644	12	45	LL	2	36.8	2	42.32	4	93.765	1.5
97.915	2.333	13	10	SS	1	21.66	0	22.31	2	100.265	1.5
108.332	2.129	14	34	SS	1	7.42	2	7.64	4	110.482	1.5
114.348	1.527	15	32	LL	2	11.53	0	17.29	4	115.898	1.5
123.865	1.806	16	12	LL	2	21.96	0	24.16	2	125.698	1.5
130.433	1.407	17	14	LL	2	27.84	0	34.8	2	131.866	1.5
140.165	1.86	18	49	SS	1	23.7	2	23.94	6	142.048	1.5
145.998	1.424	19	6	LL	2	10.5	0	13.13	2	147.448	1.5
155.365	1.648	20	54	LL	2	14.88	2	18.61	6	157.041	1.5
160.315	2.273	21	53	LL	2	35.19	2	40.46	6	162.615	1.5
166.932	1.671	22	43	SS	1	24.99	2	26.24	4	168.632	1.5
175.548	1.675	23	5	LL	2	32.79	0	37.71	2	177.25	1.5
180.516	3.026	24	60	SS	1	6.45	2	7.1	6	183.565	1.5
186.765	2.257	25	75	LL	2	20.18	4	21.19	6	189.048	1.5
199.498	2.877	26	28	LL	2	6.41	0	7.05	4	202.398	1.5
210.215	2.69	27	1	SS	1	37.69	0	38.07	2	212.932	1.5
224.085	3.153	28	26	LL	2	38.48	0	39.63	4	227.265	1.5
236.498	2.178	29	74	SS	1	13.42	4	13.82	6	238.698	1.5
244.215	1.803	30	69	LL	2	22.62	4	26.01	6	246.048	1.5
252.815	1.672	31	63	LL	2	25.61	2	34.57	6	254.515	1.5
265.97	2.473	32	25	SS	1	9.89	0	9.99	4	268.47	1.5
274.218	1.284	33	38	LL	2	32.44	2	40.55	4	275.517	1.5
286.515	2.659	34	21	LL	2	19.12	0	21.99	4	289.198	1.5
295.332	1.483	35	47	LL	2	20.07	2	27.1	4	296.843	1.5
300.532	2.111	36	80	LL	2	9.39	4	14.08	6	302.665	1.5
313.382	2.104	37	70	LL	2	25.9	4	32.37	6	315.515	1.5
321.615	3.687	38	35	SS	1	20.14	2	21.15	4	325.317	1.5
331.349	3.06	39	33	SS	1	25.56	2	25.82	4	334.432	1.5
337.182	1.271	40	79	LL	2	14.58	4	19.68	6	338.482	1.5
350.899	1.53	41	23	LL	2	6.11	0	8.25	4	352.449	1.5
357.923	2.369	42	20	LL	2	30.4	0	33.44	4	360.315	1.5
365.399	2.399	43	51	SS	1	37.85	2	39.74	6	367.832	1.5
372.049	1.902	44	11	LL	2	24.85	0	26.09	2	373.967	1.5
382.199	4.498	45	44	LL	2	22.39	2	24.62	4	386.715	1.5
390.532	2.877	46	71	LL	2	10.98	4	14.83	6	393.432	1.5
397.999	1.697	47	7	LL	2	19.45	0	26.26	2	399.715	1.5
408.932	1.811	48	46	LL	2	30.77	2	38.46	4	410.765	1.5
416.649	1.616	49	30	LL	2	25.92	0	32.4	4	418.299	1.5
421.949	3.158	50	37	LL	2	17.36	2	19.96	4	425.133	1.5
428.299	3.968	51	66	SS	1	11.96	4	12.32	6	432.282	1.5
437.965	4.113	52	3	LL	2	10.51	0	11.04	2	442.099	1.5
446.799	1.479	53	40	LL	2	12.44	2	18.66	4	448.299	1.5
453.982	3.428	54	50	SS	1	20.53	2	21.14	6	457.432	1.5
462.965	3.372	55	29	LL	2	32.7	0	37.6	4	466.365	1.5
472.601	2.8	56	27	SS	1	22.78	0	23.92	4	475.416	1.5
481.399	1.742	57	31	LL	2	23.44	0	31.64	4	483.165	1.5
488.195	2.13	58	65	SS	1	13.22	4	13.35	6	490.349	1.5
497.199	4.3	59	19	LL	2	28.48	0	29.91	4	501.532	1.5
511.365	2.526	60	4	LL	2	13.42	0	14.77	2	513.915	1.5
523.949	3.441	61	9	SS	1	22.32	0	22.54	2	527.415	1.5
531.632	4.599	62	58	LL	2	12.69	2	13.07	6	536.249	1.5
545.682	1.662	63	62	LL	2	25.3	2	31.63	6	547.365	1.5
552.332	2.219	64	8	LL	2	14.49	0	21.74	2	554.582	1.5
558.982	3.094	65	68	LL	2	25.55	4	28.11	6	562.104	1.5
572.3	3.679	66	36	LL	2	18.11	2	19.92	4	575.999	1.5
583.599	3.461	67	57	SS	1	28.25	2	28.53	6	587.082	1.5
591.665	3.623	68	18	SS	1	5.78	0	5.95	4	595.315	1.5
600.882	2.71	69	42	LL	2	9.5	2	9.79	4	603.615	1.5
607.865	1.652	70	16	LL	2	19.29	0	28.94	2	609.549	1.5
615.732	1.63	71	24	LL	2	11.37	0	17.06	4	617.399	1.5
623.916	2.477	72	78	LL	2	18.61	4	23.27	6	626.415	1.5
630.832	2.281	73	39	LL	2	14.56	2	19.66	4	633.132	1.5
639.132	1.938	74	64	LL	2	26.95	2	40.42	6	641.099	1.5
646.515	2.441	75	15	LL	2	16.47	0	22.24	2	648.982	1.5
654.982	5	76	59	NA	NA	11.17	2	11.73	6	NA	NA
667.199	2.049	77	17	SS	1	22.32	0	22.55	4	669.267	1.5
672.183	1.303	78	55	LL	2	29.45	2	39.75	6	673.499	1.5
680.215	1.593	79	56	LL	2	26.96	2	40.44	6	681.832	1.5
685.565	1.414	80	22	LL	2	18.4	0	23	4	686.999	1.5
