onset	duration	balloon_number	balloon_idx	response	pumps	pumps_demean_all	pumps_demean_type	balloon_type	balloon_outcome	balloon_maxpumps	balloon_colour	balloon_payoff_cumulative	balloon_payoff_total	onset_explosion	duration_explosion
4.063	0.789	1	1	pump	2	-4.30555555555556	-3.08333333333333	exponential	explosion	2	blue	0.01	0	NA	NA
5.913	0.623	1	2	pump	2	NA	NA	exponential	explosion	2	blue	0.0428709385014517	0	7.895	2
13.693	0.789	2	1	pump	1	-4.30555555555556	-8.33333333333333	control	control	1	grey	0	0	NA	NA
18.808	0.916	3	1	pump	3	-4.30555555555556	-1.5	linear	cashout	6	red	0.1	0.3	NA	NA
21.291	0.407	3	2	pump	3	-3.30555555555556	-0.5	linear	cashout	6	red	0.2	0.3	NA	NA
23.307	0.447	3	3	pump	3	-2.30555555555556	0.5	linear	cashout	6	red	0.3	0.3	NA	NA
24.889	0.954	3	4	cashout	3	NA	NA	linear	cashout	6	red	0.4	0.3	NA	NA
35.003	0.637	4	1	pump	15	-4.30555555555556	-8.33333333333333	control	control	15	grey	0	0	NA	NA
37.135	0.438	4	2	pump	15	-3.30555555555556	-7.33333333333333	control	control	15	grey	0	0	NA	NA
39.501	0.305	4	3	pump	15	-2.30555555555556	-6.33333333333333	control	control	15	grey	0	0	NA	NA
40.934	0.396	4	4	pump	15	-1.30555555555556	-5.33333333333333	control	control	15	grey	0	0	NA	NA
42.883	0.365	4	5	pump	15	-0.305555555555555	-4.33333333333333	control	control	15	grey	0	0	NA	NA
45.083	0.354	4	6	pump	15	0.694444444444445	-3.33333333333333	control	control	15	grey	0	0	NA	NA
46.632	0.435	4	7	pump	15	1.69444444444444	-2.33333333333333	control	control	15	grey	0	0	NA	NA
48.382	0.375	4	8	pump	15	2.69444444444444	-1.33333333333333	control	control	15	grey	0	0	NA	NA
50.031	0.4	4	9	pump	15	3.69444444444444	-0.333333333333334	control	control	15	grey	0	0	NA	NA
51.747	0.367	4	10	pump	15	4.69444444444444	0.666666666666666	control	control	15	grey	0	0	NA	NA
53.68	0.345	4	11	pump	15	5.69444444444444	1.66666666666667	control	control	15	grey	0	0	NA	NA
55.712	0.458	4	12	pump	15	6.69444444444444	2.66666666666667	control	control	15	grey	0	0	NA	NA
57.412	0.57	4	13	pump	15	7.69444444444444	3.66666666666667	control	control	15	grey	0	0	NA	NA
59.861	0.469	4	14	pump	15	8.69444444444444	4.66666666666667	control	control	15	grey	0	0	NA	NA
61.91	0.615	4	15	pump	15	9.69444444444444	5.66666666666667	control	control	15	grey	0	0	NA	NA
65.976	0.566	5	1	pump	2	-4.30555555555556	-1.5	linear	explosion	2	red	0.1	0	NA	NA
68.575	0.295	5	2	pump	2	NA	NA	linear	explosion	2	red	0.2	0	70.441	2
83.02	0.581	6	1	pump	3	-4.30555555555556	-3.08333333333333	exponential	cashout	10	blue	0.01	0.1	NA	NA
85.419	0.363	6	2	pump	3	-3.30555555555556	-2.08333333333333	exponential	cashout	10	blue	0.0428709385014517	0.1	NA	NA
87.218	0.308	6	3	pump	3	-2.30555555555556	-1.08333333333333	exponential	cashout	10	blue	0.100451085663051	0.1	NA	NA
89.518	0.582	6	4	cashout	3	NA	NA	exponential	cashout	10	blue	0.183791736799526	0.1	NA	NA
97.915	0.455	7	1	pump	3	-4.30555555555556	-1.5	linear	cashout	13	red	0.1	0.3	NA	NA
100.164	0.274	7	2	pump	3	-3.30555555555556	-0.5	linear	cashout	13	red	0.2	0.3	NA	NA
101.514	0.373	7	3	pump	3	-2.30555555555556	0.5	linear	cashout	13	red	0.3	0.3	NA	NA
103.813	0.565	7	4	cashout	3	NA	NA	linear	cashout	13	red	0.4	0.3	NA	NA
114.376	0.487	8	1	pump	5	-4.30555555555556	-3.08333333333333	exponential	cashout	6	blue	0.01	0.29	NA	NA
116.575	0.293	8	2	pump	5	-3.30555555555556	-2.08333333333333	exponential	cashout	6	blue	0.0428709385014517	0.29	NA	NA
118.624	0.254	8	3	pump	5	-2.30555555555556	-1.08333333333333	exponential	cashout	6	blue	0.100451085663051	0.29	NA	NA
120.657	0.313	8	4	pump	5	-1.30555555555556	-0.083333333333333	exponential	cashout	6	blue	0.183791736799526	0.29	NA	NA
122.956	0.336	8	5	pump	5	-0.305555555555555	0.916666666666667	exponential	cashout	6	blue	0.293654735772005	0.29	NA	NA
124.839	0.545	8	6	cashout	5	NA	NA	exponential	cashout	6	blue	0.430643231586474	0.29	NA	NA
138.001	0.604	9	1	pump	12	-4.30555555555556	-8.33333333333333	control	control	12	grey	0	0	NA	NA
139.901	0.231	9	2	pump	12	-3.30555555555556	-7.33333333333333	control	control	12	grey	0	0	NA	NA
142.017	0.43	9	3	pump	12	-2.30555555555556	-6.33333333333333	control	control	12	grey	0	0	NA	NA
143.733	0.277	9	4	pump	12	-1.30555555555556	-5.33333333333333	control	control	12	grey	0	0	NA	NA
146.015	0.274	9	5	pump	12	-0.305555555555555	-4.33333333333333	control	control	12	grey	0	0	NA	NA
147.415	0.291	9	6	pump	12	0.694444444444445	-3.33333333333333	control	control	12	grey	0	0	NA	NA
148.931	0.248	9	7	pump	12	1.69444444444444	-2.33333333333333	control	control	12	grey	0	0	NA	NA
150.73	0.28	9	8	pump	12	2.69444444444444	-1.33333333333333	control	control	12	grey	0	0	NA	NA
152.663	0.295	9	9	pump	12	3.69444444444444	-0.333333333333334	control	control	12	grey	0	0	NA	NA
154.179	0.331	9	10	pump	12	4.69444444444444	0.666666666666666	control	control	12	grey	0	0	NA	NA
156.078	0.309	9	11	pump	12	5.69444444444444	1.66666666666667	control	control	12	grey	0	0	NA	NA
157.728	0.329	9	12	pump	12	6.69444444444444	2.66666666666667	control	control	12	grey	0	0	NA	NA
165.409	0.576	10	1	pump	15	-4.30555555555556	-8.33333333333333	control	control	15	grey	0	0	NA	NA
167.541	0.266	10	2	pump	15	-3.30555555555556	-7.33333333333333	control	control	15	grey	0	0	NA	NA
169.341	0.248	10	3	pump	15	-2.30555555555556	-6.33333333333333	control	control	15	grey	0	0	NA	NA
171.29	0.46	10	4	pump	15	-1.30555555555556	-5.33333333333333	control	control	15	grey	0	0	NA	NA
173.789	0.311	10	5	pump	15	-0.305555555555555	-4.33333333333333	control	control	15	grey	0	0	NA	NA
176.088	0.269	10	6	pump	15	0.694444444444445	-3.33333333333333	control	control	15	grey	0	0	NA	NA
177.538	0.325	10	7	pump	15	1.69444444444444	-2.33333333333333	control	control	15	grey	0	0	NA	NA
179.304	0.28	10	8	pump	15	2.69444444444444	-1.33333333333333	control	control	15	grey	0	0	NA	NA
181.387	0.304	10	9	pump	15	3.69444444444444	-0.333333333333334	control	control	15	grey	0	0	NA	NA
183.336	0.311	10	10	pump	15	4.69444444444444	0.666666666666666	control	control	15	grey	0	0	NA	NA
185.585	0.333	10	11	pump	15	5.69444444444444	1.66666666666667	control	control	15	grey	0	0	NA	NA
187.651	0.358	10	12	pump	15	6.69444444444444	2.66666666666667	control	control	15	grey	0	0	NA	NA
189.084	0.349	10	13	pump	15	7.69444444444444	3.66666666666667	control	control	15	grey	0	0	NA	NA
191.35	0.348	10	14	pump	15	8.69444444444444	4.66666666666667	control	control	15	grey	0	0	NA	NA
193.682	0.393	10	15	pump	15	9.69444444444444	5.66666666666667	control	control	15	grey	0	0	NA	NA
197.614	1.398	11	1	pump	6	-4.30555555555556	-3.08333333333333	exponential	cashout	8	blue	0.01	0.43	NA	NA
200.38	0.269	11	2	pump	6	-3.30555555555556	-2.08333333333333	exponential	cashout	8	blue	0.0428709385014517	0.43	NA	NA
201.713	0.271	11	3	pump	6	-2.30555555555556	-1.08333333333333	exponential	cashout	8	blue	0.100451085663051	0.43	NA	NA
203.562	0.354	11	4	pump	6	-1.30555555555556	-0.083333333333333	exponential	cashout	8	blue	0.183791736799526	0.43	NA	NA
205.245	0.275	11	5	pump	6	-0.305555555555555	0.916666666666667	exponential	cashout	8	blue	0.293654735772005	0.43	NA	NA
207.078	0.342	11	6	pump	6	0.694444444444445	1.91666666666667	exponential	cashout	8	blue	0.430643231586474	0.43	NA	NA
209.377	0.571	11	7	cashout	6	NA	NA	exponential	cashout	8	blue	0.595258881579143	0.43	NA	NA
217.874	0.387	12	1	pump	2	-4.30555555555556	-1.5	linear	explosion	2	red	0.1	0	NA	NA
219.39	0.242	12	2	pump	2	NA	NA	linear	explosion	2	red	0.2	0	221.156	2
226.221	0.767	13	1	pump	4	-4.30555555555556	-8.33333333333333	control	control	4	grey	0	0	NA	NA
228.437	0.217	13	2	pump	4	-3.30555555555556	-7.33333333333333	control	control	4	grey	0	0	NA	NA
229.803	0.238	13	3	pump	4	-2.30555555555556	-6.33333333333333	control	control	4	grey	0	0	NA	NA
231.32	0.223	13	4	pump	4	-1.30555555555556	-5.33333333333333	control	control	4	grey	0	0	NA	NA
235.485	1.155	14	1	pump	2	-4.30555555555556	-1.5	linear	cashout	4	red	0.1	0.2	NA	NA
237.967	0.28	14	2	pump	2	-3.30555555555556	-0.5	linear	cashout	4	red	0.2	0.2	NA	NA
240.183	0.724	14	3	cashout	2	NA	NA	linear	cashout	4	red	0.3	0.2	NA	NA
246.415	0.465	15	1	pump	3	-4.30555555555556	-3.08333333333333	exponential	explosion	3	blue	0.01	0	NA	NA
248.064	0.268	15	2	pump	3	-3.30555555555556	-2.08333333333333	exponential	explosion	3	blue	0.0428709385014517	0	NA	NA
249.747	0.306	15	3	pump	3	NA	NA	exponential	explosion	3	blue	0.100451085663051	0	251.946	2
257.911	0.431	16	1	pump	2	-4.30555555555556	-1.5	linear	cashout	16	red	0.1	0.2	NA	NA
260.376	0.293	16	2	pump	2	-3.30555555555556	-0.5	linear	cashout	16	red	0.2	0.2	NA	NA
262.176	0.49	16	3	cashout	2	NA	NA	linear	cashout	16	red	0.3	0.2	NA	NA
268.157	0.692	17	1	pump	16	-4.30555555555556	-8.33333333333333	control	control	16	grey	0	0	NA	NA
270.406	0.252	17	2	pump	16	-3.30555555555556	-7.33333333333333	control	control	16	grey	0	0	NA	NA
271.906	0.2	17	3	pump	16	-2.30555555555556	-6.33333333333333	control	control	16	grey	0	0	NA	NA
273.222	0.176	17	4	pump	16	-1.30555555555556	-5.33333333333333	control	control	16	grey	0	0	NA	NA
275.438	0.398	17	5	pump	16	-0.305555555555555	-4.33333333333333	control	control	16	grey	0	0	NA	NA
277.054	0.304	17	6	pump	16	0.694444444444445	-3.33333333333333	control	control	16	grey	0	0	NA	NA
279.087	0.254	17	7	pump	16	1.69444444444444	-2.33333333333333	control	control	16	grey	0	0	NA	NA
281.319	0.347	17	8	pump	16	2.69444444444444	-1.33333333333333	control	control	16	grey	0	0	NA	NA
283.569	0.459	17	9	pump	16	3.69444444444444	-0.333333333333334	control	control	16	grey	0	0	NA	NA
285.501	0.483	17	10	pump	16	4.69444444444444	0.666666666666666	control	control	16	grey	0	0	NA	NA
287.95	0.38	17	11	pump	16	5.69444444444444	1.66666666666667	control	control	16	grey	0	0	NA	NA
289.533	0.545	17	12	pump	16	6.69444444444444	2.66666666666667	control	control	16	grey	0	0	NA	NA
291.199	0.328	17	13	pump	16	7.69444444444444	3.66666666666667	control	control	16	grey	0	0	NA	NA
292.765	0.357	17	14	pump	16	8.69444444444444	4.66666666666667	control	control	16	grey	0	0	NA	NA
294.232	0.322	17	15	pump	16	9.69444444444444	5.66666666666667	control	control	16	grey	0	0	NA	NA
295.814	0.311	17	16	pump	16	10.6944444444444	6.66666666666667	control	control	16	grey	0	0	NA	NA
299.946	1.254	18	1	pump	4	-4.30555555555556	-3.08333333333333	exponential	cashout	14	blue	0.01	0.18	NA	NA
302.612	0.262	18	2	pump	4	-3.30555555555556	-2.08333333333333	exponential	cashout	14	blue	0.0428709385014517	0.18	NA	NA
304.895	0.328	18	3	pump	4	-2.30555555555556	-1.08333333333333	exponential	cashout	14	blue	0.100451085663051	0.18	NA	NA
306.627	0.301	18	4	pump	4	-1.30555555555556	-0.083333333333333	exponential	cashout	14	blue	0.183791736799526	0.18	NA	NA
308.893	0.544	18	5	cashout	4	NA	NA	exponential	cashout	14	blue	0.293654735772005	0.18	NA	NA
321.156	0.425	19	1	pump	3	-4.30555555555556	-1.5	linear	cashout	9	red	0.1	0.3	NA	NA
322.789	0.252	19	2	pump	3	-3.30555555555556	-0.5	linear	cashout	9	red	0.2	0.3	NA	NA
324.222	0.415	19	3	pump	3	-2.30555555555556	0.5	linear	cashout	9	red	0.3	0.3	NA	NA
326.437	0.947	19	4	cashout	3	NA	NA	linear	cashout	9	red	0.4	0.3	NA	NA
333.635	0.422	20	1	pump	5	-4.30555555555556	-3.08333333333333	exponential	cashout	11	blue	0.01	0.29	NA	NA
335.301	0.192	20	2	pump	5	-3.30555555555556	-2.08333333333333	exponential	cashout	11	blue	0.0428709385014517	0.29	NA	NA
337.434	0.285	20	3	pump	5	-2.30555555555556	-1.08333333333333	exponential	cashout	11	blue	0.100451085663051	0.29	NA	NA
338.833	0.306	20	4	pump	5	-1.30555555555556	-0.083333333333333	exponential	cashout	11	blue	0.183791736799526	0.29	NA	NA
340.466	0.312	20	5	pump	5	-0.305555555555555	0.916666666666667	exponential	cashout	11	blue	0.293654735772005	0.29	NA	NA
342.799	0.594	20	6	cashout	5	NA	NA	exponential	cashout	11	blue	0.430643231586474	0.29	NA	NA
353.412	0.679	21	1	pump	6	-4.30555555555556	-8.33333333333333	control	control	6	grey	0	0	NA	NA
356.111	0.343	21	2	pump	6	-3.30555555555556	-7.33333333333333	control	control	6	grey	0	0	NA	NA
357.793	0.184	21	3	pump	6	-2.30555555555556	-6.33333333333333	control	control	6	grey	0	0	NA	NA
359.776	0.381	21	4	pump	6	-1.30555555555556	-5.33333333333333	control	control	6	grey	0	0	NA	NA
361.492	0.262	21	5	pump	6	-0.305555555555555	-4.33333333333333	control	control	6	grey	0	0	NA	NA
363.492	0.258	21	6	pump	6	0.694444444444445	-3.33333333333333	control	control	6	grey	0	0	NA	NA
371.206	0.575	22	1	pump	3	-4.30555555555556	-1.5	linear	explosion	3	red	0.1	0	NA	NA
372.938	0.214	22	2	pump	3	-3.30555555555556	-0.5	linear	explosion	3	red	0.2	0	NA	NA
374.788	0.356	22	3	pump	3	NA	NA	linear	explosion	3	red	0.3	0	376.437	2
381.619	0.821	23	1	pump	7	-4.30555555555556	-8.33333333333333	control	control	7	grey	0	0	NA	NA
383.851	0.247	23	2	pump	7	-3.30555555555556	-7.33333333333333	control	control	7	grey	0	0	NA	NA
386.051	0.454	23	3	pump	7	-2.30555555555556	-6.33333333333333	control	control	7	grey	0	0	NA	NA
388.283	0.308	23	4	pump	7	-1.30555555555556	-5.33333333333333	control	control	7	grey	0	0	NA	NA
390.466	0.302	23	5	pump	7	-0.305555555555555	-4.33333333333333	control	control	7	grey	0	0	NA	NA
391.949	0.28	23	6	pump	7	0.694444444444445	-3.33333333333333	control	control	7	grey	0	0	NA	NA
394.198	0.297	23	7	pump	7	1.69444444444444	-2.33333333333333	control	control	7	grey	0	0	NA	NA
401.562	0.96	24	1	pump	4	-4.30555555555556	-3.08333333333333	exponential	cashout	10	blue	0.01	0.18	NA	NA
404.344	0.271	24	2	pump	4	-3.30555555555556	-2.08333333333333	exponential	cashout	10	blue	0.0428709385014517	0.18	NA	NA
406.644	0.292	24	3	pump	4	-2.30555555555556	-1.08333333333333	exponential	cashout	10	blue	0.100451085663051	0.18	NA	NA
408.376	0.309	24	4	pump	4	-1.30555555555556	-0.083333333333333	exponential	cashout	10	blue	0.183791736799526	0.18	NA	NA
410.342	0.597	24	5	cashout	4	NA	NA	exponential	cashout	10	blue	0.293654735772005	0.18	NA	NA
418.64	0.378	25	1	pump	2	-4.30555555555556	-1.5	linear	explosion	2	red	0.1	0	NA	NA
420.922	0.274	25	2	pump	2	NA	NA	linear	explosion	2	red	0.2	0	422.622	2
430.669	0.486	26	1	pump	5	-4.30555555555556	-3.08333333333333	exponential	cashout	7	blue	0.01	0.29	NA	NA
433.201	0.28	26	2	pump	5	-3.30555555555556	-2.08333333333333	exponential	cashout	7	blue	0.0428709385014517	0.29	NA	NA
435.034	0.254	26	3	pump	5	-2.30555555555556	-1.08333333333333	exponential	cashout	7	blue	0.100451085663051	0.29	NA	NA
436.917	0.274	26	4	pump	5	-1.30555555555556	-0.083333333333333	exponential	cashout	7	blue	0.183791736799526	0.29	NA	NA
438.816	0.314	26	5	pump	5	-0.305555555555555	0.916666666666667	exponential	cashout	7	blue	0.293654735772005	0.29	NA	NA
440.865	0.737	26	6	cashout	5	NA	NA	exponential	cashout	7	blue	0.430643231586474	0.29	NA	NA
447.063	0.413	27	1	pump	7	-4.30555555555556	-8.33333333333333	control	control	7	grey	0	0	NA	NA
449.246	0.297	27	2	pump	7	-3.30555555555556	-7.33333333333333	control	control	7	grey	0	0	NA	NA
451.495	0.269	27	3	pump	7	-2.30555555555556	-6.33333333333333	control	control	7	grey	0	0	NA	NA
453.594	0.311	27	4	pump	7	-1.30555555555556	-5.33333333333333	control	control	7	grey	0	0	NA	NA
455.594	0.347	27	5	pump	7	-0.305555555555555	-4.33333333333333	control	control	7	grey	0	0	NA	NA
457.243	0.387	27	6	pump	7	0.694444444444445	-3.33333333333333	control	control	7	grey	0	0	NA	NA
459.509	0.284	27	7	pump	7	1.69444444444444	-2.33333333333333	control	control	7	grey	0	0	NA	NA
463.758	0.809	28	1	pump	2	-4.30555555555556	-1.5	linear	cashout	10	red	0.1	0.2	NA	NA
466.59	0.267	28	2	pump	2	-3.30555555555556	-0.5	linear	cashout	10	red	0.2	0.2	NA	NA
468.723	0.519	28	3	cashout	2	NA	NA	linear	cashout	10	red	0.3	0.2	NA	NA
479.419	0.527	29	1	pump	6	-4.30555555555556	-3.08333333333333	exponential	cashout	15	blue	0.01	0.43	NA	NA
481.185	0.292	29	2	pump	6	-3.30555555555556	-2.08333333333333	exponential	cashout	15	blue	0.0428709385014517	0.43	NA	NA
483.234	0.281	29	3	pump	6	-2.30555555555556	-1.08333333333333	exponential	cashout	15	blue	0.100451085663051	0.43	NA	NA
485.2	0.258	29	4	pump	6	-1.30555555555556	-0.083333333333333	exponential	cashout	15	blue	0.183791736799526	0.43	NA	NA
487.033	0.262	29	5	pump	6	-0.305555555555555	0.916666666666667	exponential	cashout	15	blue	0.293654735772005	0.43	NA	NA
488.366	0.455	29	6	pump	6	0.694444444444445	1.91666666666667	exponential	cashout	15	blue	0.430643231586474	0.43	NA	NA
490.415	0.686	29	7	cashout	6	NA	NA	exponential	cashout	15	blue	0.595258881579143	0.43	NA	NA
498.163	0.676	30	1	pump	7	-4.30555555555556	-8.33333333333333	control	control	7	grey	0	0	NA	NA
500.362	0.254	30	2	pump	7	-3.30555555555556	-7.33333333333333	control	control	7	grey	0	0	NA	NA
502.395	0.282	30	3	pump	7	-2.30555555555556	-6.33333333333333	control	control	7	grey	0	0	NA	NA
504.277	0.245	30	4	pump	7	-1.30555555555556	-5.33333333333333	control	control	7	grey	0	0	NA	NA
506.51	0.258	30	5	pump	7	-0.305555555555555	-4.33333333333333	control	control	7	grey	0	0	NA	NA
508.826	0.504	30	6	pump	7	0.694444444444445	-3.33333333333333	control	control	7	grey	0	0	NA	NA
510.925	0.251	30	7	pump	7	1.69444444444444	-2.33333333333333	control	control	7	grey	0	0	NA	NA
515.34	0.57	31	1	pump	14	-4.30555555555556	-8.33333333333333	control	control	14	grey	0	0	NA	NA
517.906	0.316	31	2	pump	14	-3.30555555555556	-7.33333333333333	control	control	14	grey	0	0	NA	NA
519.639	0.312	31	3	pump	14	-2.30555555555556	-6.33333333333333	control	control	14	grey	0	0	NA	NA
521.821	0.372	31	4	pump	14	-1.30555555555556	-5.33333333333333	control	control	14	grey	0	0	NA	NA
523.287	0.31	31	5	pump	14	-0.305555555555555	-4.33333333333333	control	control	14	grey	0	0	NA	NA
525.154	0.793	31	6	pump	14	0.694444444444445	-3.33333333333333	control	control	14	grey	0	0	NA	NA
527.686	0.285	31	7	pump	14	1.69444444444444	-2.33333333333333	control	control	14	grey	0	0	NA	NA
529.852	0.3	31	8	pump	14	2.69444444444444	-1.33333333333333	control	control	14	grey	0	0	NA	NA
531.518	0.351	31	9	pump	14	3.69444444444444	-0.333333333333334	control	control	14	grey	0	0	NA	NA
533.467	0.408	31	10	pump	14	4.69444444444444	0.666666666666666	control	control	14	grey	0	0	NA	NA
535.15	0.328	31	11	pump	14	5.69444444444444	1.66666666666667	control	control	14	grey	0	0	NA	NA
537.216	0.322	31	12	pump	14	6.69444444444444	2.66666666666667	control	control	14	grey	0	0	NA	NA
538.899	0.419	31	13	pump	14	7.69444444444444	3.66666666666667	control	control	14	grey	0	0	NA	NA
540.765	0.391	31	14	pump	14	8.69444444444444	4.66666666666667	control	control	14	grey	0	0	NA	NA
545.847	0.382	32	1	pump	3	-4.30555555555556	-1.5	linear	cashout	6	red	0.1	0.3	NA	NA
547.796	0.258	32	2	pump	3	-3.30555555555556	-0.5	linear	cashout	6	red	0.2	0.3	NA	NA
549.862	0.35	32	3	pump	3	-2.30555555555556	0.5	linear	cashout	6	red	0.3	0.3	NA	NA
551.395	0.774	32	4	cashout	3	NA	NA	linear	cashout	6	red	0.4	0.3	NA	NA
558.142	0.344	33	1	pump	5	-4.30555555555556	-3.08333333333333	exponential	cashout	8	blue	0.01	0.29	NA	NA
559.958	0.344	33	2	pump	5	-3.30555555555556	-2.08333333333333	exponential	cashout	8	blue	0.0428709385014517	0.29	NA	NA
562.041	0.234	33	3	pump	5	-2.30555555555556	-1.08333333333333	exponential	cashout	8	blue	0.100451085663051	0.29	NA	NA
563.84	0.257	33	4	pump	5	-1.30555555555556	-0.083333333333333	exponential	cashout	8	blue	0.183791736799526	0.29	NA	NA
565.34	0.271	33	5	pump	5	-0.305555555555555	0.916666666666667	exponential	cashout	8	blue	0.293654735772005	0.29	NA	NA
566.923	0.561	33	6	cashout	5	NA	NA	exponential	cashout	8	blue	0.430643231586474	0.29	NA	NA
577.353	0.454	34	1	pump	8	-4.30555555555556	-8.33333333333333	control	control	8	grey	0	0	NA	NA
579.085	0.248	34	2	pump	8	-3.30555555555556	-7.33333333333333	control	control	8	grey	0	0	NA	NA
580.618	0.247	34	3	pump	8	-2.30555555555556	-6.33333333333333	control	control	8	grey	0	0	NA	NA
582.417	0.231	34	4	pump	8	-1.30555555555556	-5.33333333333333	control	control	8	grey	0	0	NA	NA
584.217	0.262	34	5	pump	8	-0.305555555555555	-4.33333333333333	control	control	8	grey	0	0	NA	NA
585.55	0.275	34	6	pump	8	0.694444444444445	-3.33333333333333	control	control	8	grey	0	0	NA	NA
586.983	0.234	34	7	pump	8	1.69444444444444	-2.33333333333333	control	control	8	grey	0	0	NA	NA
588.549	0.264	34	8	pump	8	2.69444444444444	-1.33333333333333	control	control	8	grey	0	0	NA	NA
593.697	0.832	35	1	pump	1	NA	NA	exponential	explosion	1	blue	0.01	0	595.83	2
600.645	0.519	36	1	pump	3	-4.30555555555556	-1.5	linear	cashout	7	red	0.1	0.3	NA	NA
602.727	0.393	36	2	pump	3	-3.30555555555556	-0.5	linear	cashout	7	red	0.2	0.3	NA	NA
605.076	0.422	36	3	pump	3	-2.30555555555556	0.5	linear	cashout	7	red	0.3	0.3	NA	NA
607.209	0.868	36	4	cashout	3	NA	NA	linear	cashout	7	red	0.4	0.3	NA	NA
