onset	duration	trial	trial_id	choice	choice_bin	magnitude_sooner	delay_sooner	magnitude_later	delay_later	onset_choice_fb	duration_choice_fb
15.571	1.745	1	14	SS	1	27.84	0	34.8	2	17.337	1.5
20.919	2.114	2	74	SS	1	13.42	4	13.82	6	23.051	1.5
34.081	2.281	3	36	SS	1	18.11	2	19.92	4	36.38	1.5
42.895	1.607	4	7	SS	1	19.45	0	26.26	2	44.528	1.5
49.609	1.566	5	30	SS	1	25.92	0	32.4	4	51.192	1.5
56.29	2.185	6	20	LL	2	30.4	0	33.44	4	58.489	1.5
68.253	1.854	7	34	SS	1	7.42	2	7.64	4	70.119	1.5
80.549	2.427	8	60	SS	1	6.45	2	7.1	6	82.998	1.5
87.696	1.213	9	33	SS	1	25.56	2	25.82	4	88.929	1.5
93.861	1.36	10	76	SS	1	22.92	4	25.21	6	95.244	1.5
100.392	1.151	11	1	SS	1	37.69	0	38.07	2	101.558	1.5
104.391	1.555	12	80	SS	1	9.39	4	14.08	6	105.973	1.5
111.455	1.249	13	13	SS	1	16.21	0	18.64	2	112.721	1.5
124.267	0.986	14	44	SS	1	22.39	2	24.62	4	125.267	1.5
131.765	1.11	15	9	SS	1	22.32	0	22.54	2	132.898	1.5
141.695	0.95	16	49	SS	1	23.7	2	23.94	6	142.661	1.5
151.558	1.274	17	48	SS	1	22.77	2	34.16	4	152.858	1.5
156.49	1.534	18	65	SS	1	13.22	4	13.35	6	158.039	1.5
163.787	1.253	19	79	SS	1	14.58	4	19.68	6	165.054	1.5
172.734	0.937	20	27	SS	1	22.78	0	23.92	4	173.684	1.5
181.815	0.888	21	63	SS	1	25.61	2	34.57	6	182.731	1.5
188.912	0.9	22	73	SS	1	9.59	4	9.68	6	189.829	1.5
195.393	1.23	23	43	SS	1	24.99	2	26.24	4	196.643	1.5
199.409	1.217	24	45	SS	1	36.8	2	42.32	4	200.642	1.5
210.755	1.059	25	16	SS	1	19.29	0	28.94	2	211.838	1.5
216.619	0.973	26	66	SS	1	11.96	4	12.32	6	217.619	1.5
221.118	0.965	27	75	SS	1	20.18	4	21.19	6	222.101	1.5
225.483	1.516	28	53	SS	1	35.19	2	40.46	6	227.016	1.5
232.531	1.107	29	15	SS	1	16.47	0	22.24	2	233.664	1.5
239.928	0.947	30	55	SS	1	29.45	2	39.75	6	240.895	1.5
247.293	1.11	31	50	SS	1	20.53	2	21.14	6	248.425	1.5
252.957	1.273	32	6	SS	1	10.5	0	13.13	2	254.257	1.5
257.272	1.265	33	47	SS	1	20.07	2	27.1	4	258.555	1.5
264.853	1.487	34	31	SS	1	23.44	0	31.64	4	266.353	1.5
273.15	1.113	35	57	SS	1	28.25	2	28.53	6	274.283	1.5
281.198	1.305	36	23	SS	1	6.11	0	8.25	4	282.531	1.5
286.729	1.184	37	39	SS	1	14.56	2	19.66	4	287.929	1.5
291.144	1.086	38	71	SS	1	10.98	4	14.83	6	292.244	1.5
299.841	1.314	39	22	SS	1	18.4	0	23	4	301.174	1.5
309.905	1.003	40	70	SS	1	25.9	4	32.37	6	310.921	1.5
321.218	1.174	41	4	SS	1	13.42	0	14.77	2	322.417	1.5
325.183	1.365	42	69	SS	1	22.62	4	26.01	6	326.566	1.5
330.581	1.621	43	40	SS	1	12.44	2	18.66	4	332.214	1.5
334.846	1.891	44	38	SS	1	32.44	2	40.55	4	336.762	1.5
342.96	1.383	45	26	SS	1	38.48	0	39.63	4	344.36	1.5
349.858	1.522	46	11	SS	1	24.85	0	26.09	2	351.407	1.5
354.456	1.341	47	56	SS	1	26.96	2	40.44	6	355.823	1.5
360.438	1.513	48	78	SS	1	18.61	4	23.27	6	361.971	1.5
367.019	1.384	49	67	SS	1	6.26	4	6.57	6	368.418	1.5
378.298	1.188	50	21	SS	1	19.12	0	21.99	4	379.498	1.5
384.813	1.467	51	2	SS	1	24.28	0	25	2	386.296	1.5
393.277	1.225	52	5	SS	1	32.79	0	37.71	2	394.526	1.5
399.608	1.59	53	58	SS	1	12.69	2	13.07	6	401.224	1.5
404.956	2.126	54	32	LL	2	11.53	0	17.29	4	407.105	1.5
409.904	1.563	55	12	SS	1	21.96	0	24.16	2	411.487	1.5
415.336	1.802	56	72	LL	2	29.27	4	43.91	6	417.152	1.5
424.699	1.605	57	18	SS	1	5.78	0	5.95	4	426.332	1.5
430.231	2.019	58	62	LL	2	25.3	2	31.63	6	432.263	1.5
438.978	1.99	59	19	SS	1	28.48	0	29.91	4	440.994	1.5
446.509	1.812	60	51	SS	1	37.85	2	39.74	6	448.341	1.5
453.556	1.365	61	59	SS	1	11.17	2	11.73	6	454.939	1.5
460.171	1.082	62	41	SS	1	11.65	2	11.77	4	461.27	1.5
468.701	1.273	63	35	SS	1	20.14	2	21.15	4	470.001	1.5
475.949	1.607	64	64	LL	2	26.95	2	40.42	6	477.582	1.5
483.013	1.299	65	25	SS	1	9.89	0	9.99	4	484.329	1.5
495.126	1.585	66	17	SS	1	22.32	0	22.55	4	496.725	1.5
506.855	1.745	67	77	LL	2	25.13	4	28.9	6	508.621	1.5
511.57	1.782	68	29	LL	2	32.7	0	37.6	4	513.369	1.5
518.051	1.323	69	28	SS	1	6.41	0	7.05	4	519.401	1.5
524.582	1.139	70	42	SS	1	9.5	2	9.79	4	525.749	1.5
528.814	1.358	71	3	SS	1	10.51	0	11.04	2	530.197	1.5
535.329	1.573	72	37	SS	1	17.36	2	19.96	4	536.928	1.5
539.494	1.449	73	46	LL	2	30.77	2	38.46	4	540.96	1.5
547.891	1.706	74	68	SS	1	25.55	4	28.11	6	549.624	1.5
554.356	1.833	75	54	LL	2	14.88	2	18.61	6	556.205	1.5
561.62	1.356	76	24	SS	1	11.37	0	17.06	4	563.003	1.5
567.668	1.578	77	52	LL	2	30.66	2	33.73	6	569.267	1.5
573.416	1.322	78	10	SS	1	21.66	0	22.31	2	574.765	1.5
578.797	1.014	79	8	SS	1	14.49	0	21.74	2	579.83	1.5
587.778	1.453	80	61	SS	1	18.24	2	20.97	6	589.244	1.5
