onset	duration	balloon_number	balloon_idx	response	pumps	pumps_demean_all	pumps_demean_type	balloon_type	balloon_outcome	balloon_maxpumps	balloon_colour	balloon_payoff_cumulative	balloon_payoff_total	onset_explosion	duration_explosion
4.061	1.899	1	1	pump	7	-4.84848484848485	-6.18181818181818	exponential	cashout	9	red	0.01	0.6	NA	NA
7.344	0.468	1	2	pump	7	-3.84848484848485	-5.18181818181818	exponential	cashout	9	red	0.0428709385014517	0.6	NA	NA
8.944	0.576	1	3	pump	7	-2.84848484848485	-4.18181818181818	exponential	cashout	9	red	0.100451085663051	0.6	NA	NA
10.978	0.514	1	4	pump	7	-1.84848484848485	-3.18181818181818	exponential	cashout	9	red	0.183791736799526	0.6	NA	NA
13.361	0.554	1	5	pump	7	-0.848484848484849	-2.18181818181818	exponential	cashout	9	red	0.293654735772005	0.6	NA	NA
15.461	0.521	1	6	pump	7	0.151515151515151	-1.18181818181818	exponential	cashout	9	red	0.430643231586474	0.6	NA	NA
17.844	0.527	1	7	pump	7	1.15151515151515	-0.181818181818182	exponential	cashout	9	red	0.595258881579143	0.6	NA	NA
19.894	0.477	1	8	cashout	7	NA	NA	exponential	cashout	9	red	0.787932424540747	0.6	NA	NA
28.828	0.702	2	1	pump	5	-4.84848484848485	-4.09090909090909	control	control	5	grey	0	0	NA	NA
31.244	0.295	2	2	pump	5	-3.84848484848485	-3.09090909090909	control	control	5	grey	0	0	NA	NA
32.794	0.456	2	3	pump	5	-2.84848484848485	-2.09090909090909	control	control	5	grey	0	0	NA	NA
34.73	0.407	2	4	pump	5	-1.84848484848485	-1.09090909090909	control	control	5	grey	0	0	NA	NA
36.429	0.592	2	5	pump	5	-0.848484848484849	-0.0909090909090908	control	control	5	grey	0	0	NA	NA
42.194	0.66	3	1	pump	9	-4.84848484848485	-4.27272727272727	linear	cashout	16	blue	0.1	0.9	NA	NA
44.676	0.332	3	2	pump	9	-3.84848484848485	-3.27272727272727	linear	cashout	16	blue	0.2	0.9	NA	NA
46.711	0.293	3	3	pump	9	-2.84848484848485	-2.27272727272727	linear	cashout	16	blue	0.3	0.9	NA	NA
48.228	0.388	3	4	pump	9	-1.84848484848485	-1.27272727272727	linear	cashout	16	blue	0.4	0.9	NA	NA
49.761	0.442	3	5	pump	9	-0.848484848484849	-0.272727272727272	linear	cashout	16	blue	0.5	0.9	NA	NA
51.491	0.403	3	6	pump	9	0.151515151515151	0.727272727272728	linear	cashout	16	blue	0.6	0.9	NA	NA
53.128	0.408	3	7	pump	9	1.15151515151515	1.72727272727273	linear	cashout	16	blue	0.7	0.9	NA	NA
55.278	0.521	3	8	pump	9	2.15151515151515	2.72727272727273	linear	cashout	16	blue	0.8	0.9	NA	NA
57.078	0.667	3	9	pump	9	3.15151515151515	3.72727272727273	linear	cashout	16	blue	0.9	0.9	NA	NA
59.345	0.504	3	10	cashout	9	NA	NA	linear	cashout	16	blue	1	0.9	NA	NA
66.461	0.837	4	1	pump	2	-4.84848484848485	-4.09090909090909	control	control	2	grey	0	0	NA	NA
68.611	0.469	4	2	pump	2	-3.84848484848485	-3.09090909090909	control	control	2	grey	0	0	NA	NA
75.211	1.335	5	1	pump	1	NA	NA	linear	explosion	1	blue	0.1	0	77.911	2
84.379	0.508	6	1	pump	6	-4.84848484848485	-6.18181818181818	exponential	cashout	11	red	0.01	0.43	NA	NA
86.212	0.571	6	2	pump	6	-3.84848484848485	-5.18181818181818	exponential	cashout	11	red	0.0428709385014517	0.43	NA	NA
87.828	0.469	6	3	pump	6	-2.84848484848485	-4.18181818181818	exponential	cashout	11	red	0.100451085663051	0.43	NA	NA
89.745	0.487	6	4	pump	6	-1.84848484848485	-3.18181818181818	exponential	cashout	11	red	0.183791736799526	0.43	NA	NA
91.761	0.416	6	5	pump	6	-0.848484848484849	-2.18181818181818	exponential	cashout	11	red	0.293654735772005	0.43	NA	NA
94.045	0.426	6	6	pump	6	0.151515151515151	-1.18181818181818	exponential	cashout	11	red	0.430643231586474	0.43	NA	NA
96.042	0.461	6	7	cashout	6	NA	NA	exponential	cashout	11	red	0.595258881579143	0.43	NA	NA
106.378	0.456	7	1	pump	9	-4.84848484848485	-6.18181818181818	exponential	cashout	12	red	0.01	1.01	NA	NA
108.511	0.43	7	2	pump	9	-3.84848484848485	-5.18181818181818	exponential	cashout	12	red	0.0428709385014517	1.01	NA	NA
110.545	0.41	7	3	pump	9	-2.84848484848485	-4.18181818181818	exponential	cashout	12	red	0.100451085663051	1.01	NA	NA
112.561	0.43	7	4	pump	9	-1.84848484848485	-3.18181818181818	exponential	cashout	12	red	0.183791736799526	1.01	NA	NA
114.411	0.42	7	5	pump	9	-0.848484848484849	-2.18181818181818	exponential	cashout	12	red	0.293654735772005	1.01	NA	NA
116.045	0.493	7	6	pump	9	0.151515151515151	-1.18181818181818	exponential	cashout	12	red	0.430643231586474	1.01	NA	NA
117.861	0.642	7	7	pump	9	1.15151515151515	-0.181818181818182	exponential	cashout	12	red	0.595258881579143	1.01	NA	NA
120.045	0.566	7	8	pump	9	2.15151515151515	0.818181818181818	exponential	cashout	12	red	0.787932424540747	1.01	NA	NA
121.845	0.525	7	9	pump	9	3.15151515151515	1.81818181818182	exponential	cashout	12	red	1.00904206108857	1.01	NA	NA
124.045	0.624	7	10	cashout	9	NA	NA	exponential	cashout	12	red	1.25892541179417	1.01	NA	NA
132.78	0.525	8	1	pump	7	-4.84848484848485	-4.09090909090909	control	control	7	grey	0	0	NA	NA
134.696	0.413	8	2	pump	7	-3.84848484848485	-3.09090909090909	control	control	7	grey	0	0	NA	NA
136.545	0.752	8	3	pump	7	-2.84848484848485	-2.09090909090909	control	control	7	grey	0	0	NA	NA
138.445	0.754	8	4	pump	7	-1.84848484848485	-1.09090909090909	control	control	7	grey	0	0	NA	NA
141.194	0.538	8	5	pump	7	-0.848484848484849	-0.0909090909090908	control	control	7	grey	0	0	NA	NA
143.761	0.432	8	6	pump	7	0.151515151515151	0.909090909090909	control	control	7	grey	0	0	NA	NA
145.528	0.325	8	7	pump	7	1.15151515151515	1.90909090909091	control	control	7	grey	0	0	NA	NA
150.228	0.611	9	1	pump	2	-4.84848484848485	-4.27272727272727	linear	explosion	2	blue	0.1	0	NA	NA
152.111	0.385	9	2	pump	2	NA	NA	linear	explosion	2	blue	0.2	0	154.361	2
162.395	0.629	10	1	pump	4	-4.84848484848485	-4.09090909090909	control	control	4	grey	0	0	NA	NA
164.878	0.278	10	2	pump	4	-3.84848484848485	-3.09090909090909	control	control	4	grey	0	0	NA	NA
166.245	0.477	10	3	pump	4	-2.84848484848485	-2.09090909090909	control	control	4	grey	0	0	NA	NA
167.911	0.764	10	4	pump	4	-1.84848484848485	-1.09090909090909	control	control	4	grey	0	0	NA	NA
172.195	0.898	11	1	pump	7	-4.84848484848485	-6.18181818181818	exponential	explosion	7	red	0.01	0	NA	NA
174.778	0.358	11	2	pump	7	-3.84848484848485	-5.18181818181818	exponential	explosion	7	red	0.0428709385014517	0	NA	NA
176.211	0.401	11	3	pump	7	-2.84848484848485	-4.18181818181818	exponential	explosion	7	red	0.100451085663051	0	NA	NA
177.998	0.613	11	4	pump	7	-1.84848484848485	-3.18181818181818	exponential	explosion	7	red	0.183791736799526	0	NA	NA
180.128	0.388	11	5	pump	7	-0.848484848484849	-2.18181818181818	exponential	explosion	7	red	0.293654735772005	0	NA	NA
181.846	0.477	11	6	pump	7	0.151515151515151	-1.18181818181818	exponential	explosion	7	red	0.430643231586474	0	NA	NA
184.062	0.464	11	7	pump	7	NA	NA	exponential	explosion	7	red	0.595258881579143	0	185.612	2
191.578	0.62	12	1	pump	2	-4.84848484848485	-4.27272727272727	linear	explosion	2	blue	0.1	0	NA	NA
193.895	0.314	12	2	pump	2	NA	NA	linear	explosion	2	blue	0.2	0	196.211	2
202.889	0.603	13	1	pump	10	-4.84848484848485	-6.18181818181818	exponential	cashout	16	red	0.01	1.26	NA	NA
205.495	0.431	13	2	pump	10	-3.84848484848485	-5.18181818181818	exponential	cashout	16	red	0.0428709385014517	1.26	NA	NA
207.595	0.369	13	3	pump	10	-2.84848484848485	-4.18181818181818	exponential	cashout	16	red	0.100451085663051	1.26	NA	NA
209.804	0.327	13	4	pump	10	-1.84848484848485	-3.18181818181818	exponential	cashout	16	red	0.183791736799526	1.26	NA	NA
211.311	0.595	13	5	pump	10	-0.848484848484849	-2.18181818181818	exponential	cashout	16	red	0.293654735772005	1.26	NA	NA
213.428	0.313	13	6	pump	10	0.151515151515151	-1.18181818181818	exponential	cashout	16	red	0.430643231586474	1.26	NA	NA
215.295	0.348	13	7	pump	10	1.15151515151515	-0.181818181818182	exponential	cashout	16	red	0.595258881579143	1.26	NA	NA
217.078	0.362	13	8	pump	10	2.15151515151515	0.818181818181818	exponential	cashout	16	red	0.787932424540747	1.26	NA	NA
218.695	0.393	13	9	pump	10	3.15151515151515	1.81818181818182	exponential	cashout	16	red	1.00904206108857	1.26	NA	NA
221.028	0.613	13	10	pump	10	4.15151515151515	2.81818181818182	exponential	cashout	16	red	1.25892541179417	1.26	NA	NA
223.361	0.523	13	11	cashout	10	NA	NA	exponential	cashout	16	red	1.53788775440427	1.26	NA	NA
233.212	0.675	14	1	pump	8	-4.84848484848485	-4.27272727272727	linear	explosion	8	blue	0.1	0	NA	NA
235.928	0.326	14	2	pump	8	-3.84848484848485	-3.27272727272727	linear	explosion	8	blue	0.2	0	NA	NA
237.661	0.359	14	3	pump	8	-2.84848484848485	-2.27272727272727	linear	explosion	8	blue	0.3	0	NA	NA
239.978	0.335	14	4	pump	8	-1.84848484848485	-1.27272727272727	linear	explosion	8	blue	0.4	0	NA	NA
241.528	0.428	14	5	pump	8	-0.848484848484849	-0.272727272727272	linear	explosion	8	blue	0.5	0	NA	NA
243.061	0.359	14	6	pump	8	0.151515151515151	0.727272727272728	linear	explosion	8	blue	0.6	0	NA	NA
245.478	0.422	14	7	pump	8	1.15151515151515	1.72727272727273	linear	explosion	8	blue	0.7	0	NA	NA
247.861	0.421	14	8	pump	8	NA	NA	linear	explosion	8	blue	0.8	0	249.395	2
256.128	0.656	15	1	pump	1	-4.84848484848485	-4.09090909090909	control	control	1	grey	0	0	NA	NA
261.678	0.558	16	1	pump	7	-4.84848484848485	-4.27272727272727	linear	cashout	14	blue	0.1	0.7	NA	NA
263.478	0.363	16	2	pump	7	-3.84848484848485	-3.27272727272727	linear	cashout	14	blue	0.2	0.7	NA	NA
264.928	0.445	16	3	pump	7	-2.84848484848485	-2.27272727272727	linear	cashout	14	blue	0.3	0.7	NA	NA
267.011	0.309	16	4	pump	7	-1.84848484848485	-1.27272727272727	linear	cashout	14	blue	0.4	0.7	NA	NA
268.861	0.338	16	5	pump	7	-0.848484848484849	-0.272727272727272	linear	cashout	14	blue	0.5	0.7	NA	NA
270.795	0.395	16	6	pump	7	0.151515151515151	0.727272727272728	linear	cashout	14	blue	0.6	0.7	NA	NA
272.461	0.401	16	7	pump	7	1.15151515151515	1.72727272727273	linear	cashout	14	blue	0.7	0.7	NA	NA
274.945	0.776	16	8	cashout	7	NA	NA	linear	cashout	14	blue	0.8	0.7	NA	NA
280.296	0.736	17	1	pump	9	-4.84848484848485	-6.18181818181818	exponential	cashout	13	red	0.01	1.01	NA	NA
282.629	0.445	17	2	pump	9	-3.84848484848485	-5.18181818181818	exponential	cashout	13	red	0.0428709385014517	1.01	NA	NA
284.962	0.436	17	3	pump	9	-2.84848484848485	-4.18181818181818	exponential	cashout	13	red	0.100451085663051	1.01	NA	NA
286.878	0.373	17	4	pump	9	-1.84848484848485	-3.18181818181818	exponential	cashout	13	red	0.183791736799526	1.01	NA	NA
288.561	0.582	17	5	pump	9	-0.848484848484849	-2.18181818181818	exponential	cashout	13	red	0.293654735772005	1.01	NA	NA
291.178	0.351	17	6	pump	9	0.151515151515151	-1.18181818181818	exponential	cashout	13	red	0.430643231586474	1.01	NA	NA
292.795	0.388	17	7	pump	9	1.15151515151515	-0.181818181818182	exponential	cashout	13	red	0.595258881579143	1.01	NA	NA
294.428	0.569	17	8	pump	9	2.15151515151515	0.818181818181818	exponential	cashout	13	red	0.787932424540747	1.01	NA	NA
296.078	0.927	17	9	pump	9	3.15151515151515	1.81818181818182	exponential	cashout	13	red	1.00904206108857	1.01	NA	NA
298.595	0.61	17	10	cashout	9	NA	NA	exponential	cashout	13	red	1.25892541179417	1.01	NA	NA
306.295	0.587	18	1	pump	9	-4.84848484848485	-4.09090909090909	control	control	9	grey	0	0	NA	NA
308.511	0.474	18	2	pump	9	-3.84848484848485	-3.09090909090909	control	control	9	grey	0	0	NA	NA
310.411	0.403	18	3	pump	9	-2.84848484848485	-2.09090909090909	control	control	9	grey	0	0	NA	NA
312.128	0.364	18	4	pump	9	-1.84848484848485	-1.09090909090909	control	control	9	grey	0	0	NA	NA
314.395	2.322	18	5	pump	9	-0.848484848484849	-0.0909090909090908	control	control	9	grey	0	0	NA	NA
318.528	0.782	18	6	pump	9	0.151515151515151	0.909090909090909	control	control	9	grey	0	0	NA	NA
320.478	0.588	18	7	pump	9	1.15151515151515	1.90909090909091	control	control	9	grey	0	0	NA	NA
322.295	0.452	18	8	pump	9	2.15151515151515	2.90909090909091	control	control	9	grey	0	0	NA	NA
323.861	0.334	18	9	pump	9	3.15151515151515	3.90909090909091	control	control	9	grey	0	0	NA	NA
328.763	0.81	19	1	pump	7	-4.84848484848485	-4.27272727272727	linear	cashout	14	blue	0.1	0.7	NA	NA
330.929	0.397	19	2	pump	7	-3.84848484848485	-3.27272727272727	linear	cashout	14	blue	0.2	0.7	NA	NA
332.512	0.562	19	3	pump	7	-2.84848484848485	-2.27272727272727	linear	cashout	14	blue	0.3	0.7	NA	NA
334.728	0.329	19	4	pump	7	-1.84848484848485	-1.27272727272727	linear	cashout	14	blue	0.4	0.7	NA	NA
336.378	0.44	19	5	pump	7	-0.848484848484849	-0.272727272727272	linear	cashout	14	blue	0.5	0.7	NA	NA
338.211	0.347	19	6	pump	7	0.151515151515151	0.727272727272728	linear	cashout	14	blue	0.6	0.7	NA	NA
339.628	0.8	19	7	pump	7	1.15151515151515	1.72727272727273	linear	cashout	14	blue	0.7	0.7	NA	NA
341.728	0.582	19	8	cashout	7	NA	NA	linear	cashout	14	blue	0.8	0.7	NA	NA
348.145	0.537	20	1	pump	7	-4.84848484848485	-4.09090909090909	control	control	7	grey	0	0	NA	NA
349.811	0.692	20	2	pump	7	-3.84848484848485	-3.09090909090909	control	control	7	grey	0	0	NA	NA
352.245	0.538	20	3	pump	7	-2.84848484848485	-2.09090909090909	control	control	7	grey	0	0	NA	NA
353.861	0.507	20	4	pump	7	-1.84848484848485	-1.09090909090909	control	control	7	grey	0	0	NA	NA
355.828	0.609	20	5	pump	7	-0.848484848484849	-0.0909090909090908	control	control	7	grey	0	0	NA	NA
357.561	0.622	20	6	pump	7	0.151515151515151	0.909090909090909	control	control	7	grey	0	0	NA	NA
359.461	0.78	20	7	pump	7	1.15151515151515	1.90909090909091	control	control	7	grey	0	0	NA	NA
370.028	0.792	21	1	pump	6	-4.84848484848485	-6.18181818181818	exponential	cashout	11	red	0.01	0.43	NA	NA
372.061	0.535	21	2	pump	6	-3.84848484848485	-5.18181818181818	exponential	cashout	11	red	0.0428709385014517	0.43	NA	NA
373.998	0.394	21	3	pump	6	-2.84848484848485	-4.18181818181818	exponential	cashout	11	red	0.100451085663051	0.43	NA	NA
376.411	0.533	21	4	pump	6	-1.84848484848485	-3.18181818181818	exponential	cashout	11	red	0.183791736799526	0.43	NA	NA
378.83	0.36	21	5	pump	6	-0.848484848484849	-2.18181818181818	exponential	cashout	11	red	0.293654735772005	0.43	NA	NA
380.796	0.508	21	6	pump	6	0.151515151515151	-1.18181818181818	exponential	cashout	11	red	0.430643231586474	0.43	NA	NA
382.978	0.669	21	7	cashout	6	NA	NA	exponential	cashout	11	red	0.595258881579143	0.43	NA	NA
390.878	0.675	22	1	pump	3	-4.84848484848485	-4.27272727272727	linear	explosion	3	blue	0.1	0	NA	NA
393.595	0.398	22	2	pump	3	-3.84848484848485	-3.27272727272727	linear	explosion	3	blue	0.2	0	NA	NA
395.361	0.395	22	3	pump	3	NA	NA	linear	explosion	3	blue	0.3	0	397.078	2
405.195	0.67	23	1	pump	4	-4.84848484848485	-6.18181818181818	exponential	cashout	8	red	0.01	0.18	NA	NA
406.954	0.542	23	2	pump	4	-3.84848484848485	-5.18181818181818	exponential	cashout	8	red	0.0428709385014517	0.18	NA	NA
409.011	0.565	23	3	pump	4	-2.84848484848485	-4.18181818181818	exponential	cashout	8	red	0.100451085663051	0.18	NA	NA
410.995	0.645	23	4	pump	4	-1.84848484848485	-3.18181818181818	exponential	cashout	8	red	0.183791736799526	0.18	NA	NA
412.961	0.696	23	5	cashout	4	NA	NA	exponential	cashout	8	red	0.293654735772005	0.18	NA	NA
421.511	0.719	24	1	pump	2	-4.84848484848485	-4.09090909090909	control	control	2	grey	0	0	NA	NA
423.581	0.375	24	2	pump	2	-3.84848484848485	-3.09090909090909	control	control	2	grey	0	0	NA	NA
427.313	0.531	25	1	pump	7	-4.84848484848485	-6.18181818181818	exponential	cashout	8	red	0.01	0.6	NA	NA
429.346	0.405	25	2	pump	7	-3.84848484848485	-5.18181818181818	exponential	cashout	8	red	0.0428709385014517	0.6	NA	NA
431.345	0.408	25	3	pump	7	-2.84848484848485	-4.18181818181818	exponential	cashout	8	red	0.100451085663051	0.6	NA	NA
433.028	0.597	25	4	pump	7	-1.84848484848485	-3.18181818181818	exponential	cashout	8	red	0.183791736799526	0.6	NA	NA
435.277	0.327	25	5	pump	7	-0.848484848484849	-2.18181818181818	exponential	cashout	8	red	0.293654735772005	0.6	NA	NA
437.578	0.465	25	6	pump	7	0.151515151515151	-1.18181818181818	exponential	cashout	8	red	0.430643231586474	0.6	NA	NA
440.095	0.586	25	7	pump	7	1.15151515151515	-0.181818181818182	exponential	cashout	8	red	0.595258881579143	0.6	NA	NA
442.545	0.568	25	8	cashout	7	NA	NA	exponential	cashout	8	red	0.787932424540747	0.6	NA	NA
451.695	0.623	26	1	pump	7	-4.84848484848485	-4.09090909090909	control	control	7	grey	0	0	NA	NA
453.661	0.502	26	2	pump	7	-3.84848484848485	-3.09090909090909	control	control	7	grey	0	0	NA	NA
456.228	0.282	26	3	pump	7	-2.84848484848485	-2.09090909090909	control	control	7	grey	0	0	NA	NA
458.378	0.297	26	4	pump	7	-1.84848484848485	-1.09090909090909	control	control	7	grey	0	0	NA	NA
460.595	0.378	26	5	pump	7	-0.848484848484849	-0.0909090909090908	control	control	7	grey	0	0	NA	NA
462.328	0.408	26	6	pump	7	0.151515151515151	0.909090909090909	control	control	7	grey	0	0	NA	NA
464.345	1.998	26	7	pump	7	1.15151515151515	1.90909090909091	control	control	7	grey	0	0	NA	NA
471.061	0.779	27	1	pump	7	-4.84848484848485	-4.27272727272727	linear	cashout	15	blue	0.1	0.7	NA	NA
473.831	0.458	27	2	pump	7	-3.84848484848485	-3.27272727272727	linear	cashout	15	blue	0.2	0.7	NA	NA
476.063	0.28	27	3	pump	7	-2.84848484848485	-2.27272727272727	linear	cashout	15	blue	0.3	0.7	NA	NA
478.313	0.293	27	4	pump	7	-1.84848484848485	-1.27272727272727	linear	cashout	15	blue	0.4	0.7	NA	NA
479.896	0.346	27	5	pump	7	-0.848484848484849	-0.272727272727272	linear	cashout	15	blue	0.5	0.7	NA	NA
481.961	0.304	27	6	pump	7	0.151515151515151	0.727272727272728	linear	cashout	15	blue	0.6	0.7	NA	NA
483.878	0.354	27	7	pump	7	1.15151515151515	1.72727272727273	linear	cashout	15	blue	0.7	0.7	NA	NA
486.212	0.55	27	8	cashout	7	NA	NA	linear	cashout	15	blue	0.8	0.7	NA	NA
491.511	0.776	28	1	pump	7	-4.84848484848485	-6.18181818181818	exponential	cashout	13	red	0.01	0.6	NA	NA
494.074	0.311	28	2	pump	7	-3.84848484848485	-5.18181818181818	exponential	cashout	13	red	0.0428709385014517	0.6	NA	NA
495.612	0.667	28	3	pump	7	-2.84848484848485	-4.18181818181818	exponential	cashout	13	red	0.100451085663051	0.6	NA	NA
497.395	0.529	28	4	pump	7	-1.84848484848485	-3.18181818181818	exponential	cashout	13	red	0.183791736799526	0.6	NA	NA
499.178	0.451	28	5	pump	7	-0.848484848484849	-2.18181818181818	exponential	cashout	13	red	0.293654735772005	0.6	NA	NA
501.545	0.499	28	6	pump	7	0.151515151515151	-1.18181818181818	exponential	cashout	13	red	0.430643231586474	0.6	NA	NA
503.362	0.696	28	7	pump	7	1.15151515151515	-0.181818181818182	exponential	cashout	13	red	0.595258881579143	0.6	NA	NA
506.003	0.711	28	8	cashout	7	NA	NA	exponential	cashout	13	red	0.787932424540747	0.6	NA	NA
517.795	0.441	29	1	pump	6	-4.84848484848485	-4.09090909090909	control	control	6	grey	0	0	NA	NA
520.195	0.354	29	2	pump	6	-3.84848484848485	-3.09090909090909	control	control	6	grey	0	0	NA	NA
522.078	0.526	29	3	pump	6	-2.84848484848485	-2.09090909090909	control	control	6	grey	0	0	NA	NA
524.245	0.33	29	4	pump	6	-1.84848484848485	-1.09090909090909	control	control	6	grey	0	0	NA	NA
525.663	0.664	29	5	pump	6	-0.848484848484849	-0.0909090909090908	control	control	6	grey	0	0	NA	NA
527.579	0.541	29	6	pump	6	0.151515151515151	0.909090909090909	control	control	6	grey	0	0	NA	NA
531.212	0.69	30	1	pump	7	-4.84848484848485	-4.27272727272727	linear	cashout	15	blue	0.1	0.7	NA	NA
533.578	0.352	30	2	pump	7	-3.84848484848485	-3.27272727272727	linear	cashout	15	blue	0.2	0.7	NA	NA
535.895	0.477	30	3	pump	7	-2.84848484848485	-2.27272727272727	linear	cashout	15	blue	0.3	0.7	NA	NA
538.395	0.701	30	4	pump	7	-1.84848484848485	-1.27272727272727	linear	cashout	15	blue	0.4	0.7	NA	NA
540.595	0.487	30	5	pump	7	-0.848484848484849	-0.272727272727272	linear	cashout	15	blue	0.5	0.7	NA	NA
542.395	0.471	30	6	pump	7	0.151515151515151	0.727272727272728	linear	cashout	15	blue	0.6	0.7	NA	NA
544.878	0.444	30	7	pump	7	1.15151515151515	1.72727272727273	linear	cashout	15	blue	0.7	0.7	NA	NA
546.812	0.711	30	8	cashout	7	NA	NA	linear	cashout	15	blue	0.8	0.7	NA	NA
554.762	0.739	31	1	pump	5	-4.84848484848485	-4.27272727272727	linear	cashout	7	blue	0.1	0.5	NA	NA
557.412	0.374	31	2	pump	5	-3.84848484848485	-3.27272727272727	linear	cashout	7	blue	0.2	0.5	NA	NA
559.262	0.44	31	3	pump	5	-2.84848484848485	-2.27272727272727	linear	cashout	7	blue	0.3	0.5	NA	NA
561.345	0.39	31	4	pump	5	-1.84848484848485	-1.27272727272727	linear	cashout	7	blue	0.4	0.5	NA	NA
563.134	0.544	31	5	pump	5	-0.848484848484849	-0.272727272727272	linear	cashout	7	blue	0.5	0.5	NA	NA
565.128	0.575	31	6	cashout	5	NA	NA	linear	cashout	7	blue	0.6	0.5	NA	NA
571.562	0.735	32	1	pump	7	-4.84848484848485	-6.18181818181818	exponential	cashout	11	red	0.01	0.6	NA	NA
573.795	0.449	32	2	pump	7	-3.84848484848485	-5.18181818181818	exponential	cashout	11	red	0.0428709385014517	0.6	NA	NA
575.463	0.567	32	3	pump	7	-2.84848484848485	-4.18181818181818	exponential	cashout	11	red	0.100451085663051	0.6	NA	NA
577.662	0.441	32	4	pump	7	-1.84848484848485	-3.18181818181818	exponential	cashout	11	red	0.183791736799526	0.6	NA	NA
579.528	0.485	32	5	pump	7	-0.848484848484849	-2.18181818181818	exponential	cashout	11	red	0.293654735772005	0.6	NA	NA
581.762	0.525	32	6	pump	7	0.151515151515151	-1.18181818181818	exponential	cashout	11	red	0.430643231586474	0.6	NA	NA
583.512	0.438	32	7	pump	7	1.15151515151515	-0.181818181818182	exponential	cashout	11	red	0.595258881579143	0.6	NA	NA
585.045	0.642	32	8	cashout	7	NA	NA	exponential	cashout	11	red	0.787932424540747	0.6	NA	NA
594.012	0.619	33	1	pump	6	-4.84848484848485	-4.09090909090909	control	control	6	grey	0	0	NA	NA
596.278	0.406	33	2	pump	6	-3.84848484848485	-3.09090909090909	control	control	6	grey	0	0	NA	NA
598.162	0.35	33	3	pump	6	-2.84848484848485	-2.09090909090909	control	control	6	grey	0	0	NA	NA
600.128	0.566	33	4	pump	6	-1.84848484848485	-1.09090909090909	control	control	6	grey	0	0	NA	NA
602.312	0.423	33	5	pump	6	-0.848484848484849	-0.0909090909090908	control	control	6	grey	0	0	NA	NA
603.845	0.53	33	6	pump	6	0.151515151515151	0.909090909090909	control	control	6	grey	0	0	NA	NA
