onset	duration	balloon_number	balloon_idx	response	pumps	pumps_demean_all	pumps_demean_type	balloon_type	balloon_outcome	balloon_maxpumps	balloon_colour	balloon_payoff_cumulative	balloon_payoff_total	onset_explosion	duration_explosion
4.063	0.955	1	1	pump	4	-4.11428571428571	-3.5	exponential	explosion	4	blue	0.01	0	NA	NA
6.813	0.298	1	2	pump	4	-3.11428571428571	-2.5	exponential	explosion	4	blue	0.0428709385014517	0	NA	NA
8.347	0.39	1	3	pump	4	-2.11428571428571	-1.5	exponential	explosion	4	blue	0.100451085663051	0	NA	NA
10.063	0.298	1	4	pump	4	NA	NA	exponential	explosion	4	blue	0.183791736799526	0	12.313	2
23.363	0.461	2	1	pump	5	-4.11428571428571	-3.75	linear	cashout	13	red	0.1	0.5	NA	NA
25.385	0.298	2	2	pump	5	-3.11428571428571	-2.75	linear	cashout	13	red	0.2	0.5	NA	NA
27.563	0.415	2	3	pump	5	-2.11428571428571	-1.75	linear	cashout	13	red	0.3	0.5	NA	NA
29.563	0.321	2	4	pump	5	-1.11428571428571	-0.75	linear	cashout	13	red	0.4	0.5	NA	NA
31.58	0.47	2	5	pump	5	-0.114285714285714	0.25	linear	cashout	13	red	0.5	0.5	NA	NA
33.313	1.155	2	6	cashout	5	NA	NA	linear	cashout	13	red	0.6	0.5	NA	NA
41.563	0.658	3	1	pump	12	-4.11428571428571	-5.18181818181818	control	control	12	grey	0	0	NA	NA
43.53	0.255	3	2	pump	12	-3.11428571428571	-4.18181818181818	control	control	12	grey	0	0	NA	NA
44.963	0.243	3	3	pump	12	-2.11428571428571	-3.18181818181818	control	control	12	grey	0	0	NA	NA
46.83	1.187	3	4	pump	12	-1.11428571428571	-2.18181818181818	control	control	12	grey	0	0	NA	NA
49.663	0.391	3	5	pump	12	-0.114285714285714	-1.18181818181818	control	control	12	grey	0	0	NA	NA
51.863	0.349	3	6	pump	12	0.885714285714286	-0.181818181818182	control	control	12	grey	0	0	NA	NA
53.53	0.352	3	7	pump	12	1.88571428571429	0.818181818181818	control	control	12	grey	0	0	NA	NA
55.063	0.297	3	8	pump	12	2.88571428571429	1.81818181818182	control	control	12	grey	0	0	NA	NA
56.663	0.333	3	9	pump	12	3.88571428571429	2.81818181818182	control	control	12	grey	0	0	NA	NA
58.597	0.264	3	10	pump	12	4.88571428571429	3.81818181818182	control	control	12	grey	0	0	NA	NA
60.89	0.243	3	11	pump	12	5.88571428571429	4.81818181818182	control	control	12	grey	0	0	NA	NA
62.947	0.36	3	12	pump	12	6.88571428571429	5.81818181818182	control	control	12	grey	0	0	NA	NA
70.613	0.685	4	1	pump	16	-4.11428571428571	-5.18181818181818	control	control	16	grey	0	0	NA	NA
72.53	0.581	4	2	pump	16	-3.11428571428571	-4.18181818181818	control	control	16	grey	0	0	NA	NA
75.097	0.484	4	3	pump	16	-2.11428571428571	-3.18181818181818	control	control	16	grey	0	0	NA	NA
77.03	0.366	4	4	pump	16	-1.11428571428571	-2.18181818181818	control	control	16	grey	0	0	NA	NA
78.917	0.383	4	5	pump	16	-0.114285714285714	-1.18181818181818	control	control	16	grey	0	0	NA	NA
80.53	0.352	4	6	pump	16	0.885714285714286	-0.181818181818182	control	control	16	grey	0	0	NA	NA
82.097	0.36	4	7	pump	16	1.88571428571429	0.818181818181818	control	control	16	grey	0	0	NA	NA
84.047	0.278	4	8	pump	16	2.88571428571429	1.81818181818182	control	control	16	grey	0	0	NA	NA
85.814	0.447	4	9	pump	16	3.88571428571429	2.81818181818182	control	control	16	grey	0	0	NA	NA
87.814	0.278	4	10	pump	16	4.88571428571429	3.81818181818182	control	control	16	grey	0	0	NA	NA
89.73	0.336	4	11	pump	16	5.88571428571429	4.81818181818182	control	control	16	grey	0	0	NA	NA
91.53	0.398	4	12	pump	16	6.88571428571429	5.81818181818182	control	control	16	grey	0	0	NA	NA
93.13	0.504	4	13	pump	16	7.88571428571429	6.81818181818182	control	control	16	grey	0	0	NA	NA
95.363	0.418	4	14	pump	16	8.88571428571429	7.81818181818182	control	control	16	grey	0	0	NA	NA
97.377	0.517	4	15	pump	16	9.88571428571429	8.81818181818182	control	control	16	grey	0	0	NA	NA
99.547	0.553	4	16	pump	16	10.8857142857143	9.81818181818182	control	control	16	grey	0	0	NA	NA
111.28	0.598	5	1	pump	5	-4.11428571428571	-3.5	exponential	cashout	10	blue	0.01	0.29	NA	NA
113.513	0.307	5	2	pump	5	-3.11428571428571	-2.5	exponential	cashout	10	blue	0.0428709385014517	0.29	NA	NA
115.163	0.43	5	3	pump	5	-2.11428571428571	-1.5	exponential	cashout	10	blue	0.100451085663051	0.29	NA	NA
116.913	0.505	5	4	pump	5	-1.11428571428571	-0.5	exponential	cashout	10	blue	0.183791736799526	0.29	NA	NA
118.513	0.515	5	5	pump	5	-0.114285714285714	0.5	exponential	cashout	10	blue	0.293654735772005	0.29	NA	NA
121.063	0.527	5	6	cashout	5	NA	NA	exponential	cashout	10	blue	0.430643231586474	0.29	NA	NA
128.333	0.354	6	1	pump	6	-4.11428571428571	-3.75	linear	explosion	6	red	0.1	0	NA	NA
130.713	0.414	6	2	pump	6	-3.11428571428571	-2.75	linear	explosion	6	red	0.2	0	NA	NA
132.313	0.586	6	3	pump	6	-2.11428571428571	-1.75	linear	explosion	6	red	0.3	0	NA	NA
134.548	0.307	6	4	pump	6	-1.11428571428571	-0.75	linear	explosion	6	red	0.4	0	NA	NA
136.581	0.42	6	5	pump	6	-0.114285714285714	0.25	linear	explosion	6	red	0.5	0	NA	NA
138.547	0.638	6	6	pump	6	NA	NA	linear	explosion	6	red	0.6	0	140.413	2
152.063	0.422	7	1	pump	2	-4.11428571428571	-5.18181818181818	control	control	2	grey	0	0	NA	NA
154.347	0.019	7	2	pump	2	-3.11428571428571	-4.18181818181818	control	control	2	grey	0	0	NA	NA
165.08	0.6	8	1	pump	3	-4.11428571428571	-3.5	exponential	explosion	3	blue	0.01	0	NA	NA
167.33	0.276	8	2	pump	3	-3.11428571428571	-2.5	exponential	explosion	3	blue	0.0428709385014517	0	NA	NA
168.98	0.34	8	3	pump	3	NA	NA	exponential	explosion	3	blue	0.100451085663051	0	170.68	2
175.38	0.515	9	1	pump	4	-4.11428571428571	-3.75	linear	cashout	13	red	0.1	0.4	NA	NA
177.647	0.473	9	2	pump	4	-3.11428571428571	-2.75	linear	cashout	13	red	0.2	0.4	NA	NA
179.699	0.642	9	3	pump	4	-2.11428571428571	-1.75	linear	cashout	13	red	0.3	0.4	NA	NA
182.163	1.412	9	4	pump	4	-1.11428571428571	-0.75	linear	cashout	13	red	0.4	0.4	NA	NA
185.097	0.575	9	5	cashout	4	NA	NA	linear	cashout	13	red	0.5	0.4	NA	NA
198.93	0.592	10	1	pump	4	-4.11428571428571	-3.5	exponential	cashout	8	blue	0.01	0.18	NA	NA
201.592	0.327	10	2	pump	4	-3.11428571428571	-2.5	exponential	cashout	8	blue	0.0428709385014517	0.18	NA	NA
203.297	0.352	10	3	pump	4	-2.11428571428571	-1.5	exponential	cashout	8	blue	0.100451085663051	0.18	NA	NA
205.347	0.549	10	4	pump	4	-1.11428571428571	-0.5	exponential	cashout	8	blue	0.183791736799526	0.18	NA	NA
207.713	0.622	10	5	cashout	4	NA	NA	exponential	cashout	8	blue	0.293654735772005	0.18	NA	NA
214.613	0.454	11	1	pump	5	-4.11428571428571	-3.75	linear	cashout	16	red	0.1	0.5	NA	NA
216.347	0.275	11	2	pump	5	-3.11428571428571	-2.75	linear	cashout	16	red	0.2	0.5	NA	NA
218.23	0.346	11	3	pump	5	-2.11428571428571	-1.75	linear	cashout	16	red	0.3	0.5	NA	NA
220.447	0.469	11	4	pump	5	-1.11428571428571	-0.75	linear	cashout	16	red	0.4	0.5	NA	NA
222.213	0.746	11	5	pump	5	-0.114285714285714	0.25	linear	cashout	16	red	0.5	0.5	NA	NA
224.23	0.519	11	6	cashout	5	NA	NA	linear	cashout	16	red	0.6	0.5	NA	NA
230.515	0.6	12	1	pump	1	-4.11428571428571	-5.18181818181818	control	control	1	grey	0	0	NA	NA
235.847	0.6	13	1	pump	7	-4.11428571428571	-5.18181818181818	control	control	7	grey	0	0	NA	NA
238.497	0.301	13	2	pump	7	-3.11428571428571	-4.18181818181818	control	control	7	grey	0	0	NA	NA
240.713	0.297	13	3	pump	7	-2.11428571428571	-3.18181818181818	control	control	7	grey	0	0	NA	NA
242.713	0.28	13	4	pump	7	-1.11428571428571	-2.18181818181818	control	control	7	grey	0	0	NA	NA
244.247	0.307	13	5	pump	7	-0.114285714285714	-1.18181818181818	control	control	7	grey	0	0	NA	NA
245.847	0.275	13	6	pump	7	0.885714285714286	-0.181818181818182	control	control	7	grey	0	0	NA	NA
247.73	0.4	13	7	pump	7	1.88571428571429	0.818181818181818	control	control	7	grey	0	0	NA	NA
256.33	0.526	14	1	pump	4	-4.11428571428571	-3.75	linear	explosion	4	red	0.1	0	NA	NA
257.939	0.374	14	2	pump	4	-3.11428571428571	-2.75	linear	explosion	4	red	0.2	0	NA	NA
260.113	0.458	14	3	pump	4	-2.11428571428571	-1.75	linear	explosion	4	red	0.3	0	NA	NA
262.38	0.344	14	4	pump	4	NA	NA	linear	explosion	4	red	0.4	0	264.43	2
267.98	0.495	15	1	pump	3	-4.11428571428571	-3.5	exponential	cashout	7	blue	0.01	0.1	NA	NA
270.03	0.345	15	2	pump	3	-3.11428571428571	-2.5	exponential	cashout	7	blue	0.0428709385014517	0.1	NA	NA
272.114	0.67	15	3	pump	3	-2.11428571428571	-1.5	exponential	cashout	7	blue	0.100451085663051	0.1	NA	NA
274.563	0.525	15	4	cashout	3	NA	NA	exponential	cashout	7	blue	0.183791736799526	0.1	NA	NA
285.214	0.605	16	1	pump	1	NA	NA	linear	explosion	1	red	0.1	0	287.197	2
291.58	0.682	17	1	pump	6	-4.11428571428571	-5.18181818181818	control	control	6	grey	0	0	NA	NA
294.18	0.414	17	2	pump	6	-3.11428571428571	-4.18181818181818	control	control	6	grey	0	0	NA	NA
295.877	0.373	17	3	pump	6	-2.11428571428571	-3.18181818181818	control	control	6	grey	0	0	NA	NA
298.18	0.221	17	4	pump	6	-1.11428571428571	-2.18181818181818	control	control	6	grey	0	0	NA	NA
299.53	0.348	17	5	pump	6	-0.114285714285714	-1.18181818181818	control	control	6	grey	0	0	NA	NA
301.28	0.078	17	6	pump	6	0.885714285714286	-0.181818181818182	control	control	6	grey	0	0	NA	NA
304.78	0.465	18	1	pump	4	-4.11428571428571	-3.5	exponential	cashout	6	blue	0.01	0.18	NA	NA
307.247	0.286	18	2	pump	4	-3.11428571428571	-2.5	exponential	cashout	6	blue	0.0428709385014517	0.18	NA	NA
308.697	0.388	18	3	pump	4	-2.11428571428571	-1.5	exponential	cashout	6	blue	0.100451085663051	0.18	NA	NA
310.28	0.913	18	4	pump	4	-1.11428571428571	-0.5	exponential	cashout	6	blue	0.183791736799526	0.18	NA	NA
313.247	0.391	18	5	cashout	4	NA	NA	exponential	cashout	6	blue	0.293654735772005	0.18	NA	NA
320.83	0.474	19	1	pump	6	-4.11428571428571	-3.75	linear	cashout	8	red	0.1	0.6	NA	NA
322.597	1.136	19	2	pump	6	-3.11428571428571	-2.75	linear	cashout	8	red	0.2	0.6	NA	NA
325.764	0.623	19	3	pump	6	-2.11428571428571	-1.75	linear	cashout	8	red	0.3	0.6	NA	NA
327.947	1.171	19	4	pump	6	-1.11428571428571	-0.75	linear	cashout	8	red	0.4	0.6	NA	NA
330.382	0.804	19	5	pump	6	-0.114285714285714	0.25	linear	cashout	8	red	0.5	0.6	NA	NA
332.464	0.501	19	6	pump	6	0.885714285714286	1.25	linear	cashout	8	red	0.6	0.6	NA	NA
334.68	0.475	19	7	cashout	6	NA	NA	linear	cashout	8	red	0.7	0.6	NA	NA
340.395	0.676	20	1	pump	4	-4.11428571428571	-5.18181818181818	control	control	4	grey	0	0	NA	NA
342.33	0.407	20	2	pump	4	-3.11428571428571	-4.18181818181818	control	control	4	grey	0	0	NA	NA
344.43	0.371	20	3	pump	4	-2.11428571428571	-3.18181818181818	control	control	4	grey	0	0	NA	NA
346.397	0.324	20	4	pump	4	-1.11428571428571	-2.18181818181818	control	control	4	grey	0	0	NA	NA
353.48	0.584	21	1	pump	5	-4.11428571428571	-3.5	exponential	cashout	13	blue	0.01	0.29	NA	NA
355.847	0.53	21	2	pump	5	-3.11428571428571	-2.5	exponential	cashout	13	blue	0.0428709385014517	0.29	NA	NA
357.614	0.433	21	3	pump	5	-2.11428571428571	-1.5	exponential	cashout	13	blue	0.100451085663051	0.29	NA	NA
359.297	0.443	21	4	pump	5	-1.11428571428571	-0.5	exponential	cashout	13	blue	0.183791736799526	0.29	NA	NA
360.897	0.419	21	5	pump	5	-0.114285714285714	0.5	exponential	cashout	13	blue	0.293654735772005	0.29	NA	NA
362.43	0.445	21	6	cashout	5	NA	NA	exponential	cashout	13	blue	0.430643231586474	0.29	NA	NA
367.73	1.682	22	1	pump	6	-4.11428571428571	-3.5	exponential	cashout	11	blue	0.01	0.43	NA	NA
370.964	1.275	22	2	pump	6	-3.11428571428571	-2.5	exponential	cashout	11	blue	0.0428709385014517	0.43	NA	NA
373.547	1.917	22	3	pump	6	-2.11428571428571	-1.5	exponential	cashout	11	blue	0.100451085663051	0.43	NA	NA
376.799	0.722	22	4	pump	6	-1.11428571428571	-0.5	exponential	cashout	11	blue	0.183791736799526	0.43	NA	NA
379.465	1.325	22	5	pump	6	-0.114285714285714	0.5	exponential	cashout	11	blue	0.293654735772005	0.43	NA	NA
382.681	2.297	22	6	pump	6	0.885714285714286	1.5	exponential	cashout	11	blue	0.430643231586474	0.43	NA	NA
386.064	0.475	22	7	cashout	6	NA	NA	exponential	cashout	11	blue	0.595258881579143	0.43	NA	NA
392.197	0.877	23	1	pump	6	-4.11428571428571	-5.18181818181818	control	control	6	grey	0	0	NA	NA
394.63	0.368	23	2	pump	6	-3.11428571428571	-4.18181818181818	control	control	6	grey	0	0	NA	NA
396.547	2.205	23	3	pump	6	-2.11428571428571	-3.18181818181818	control	control	6	grey	0	0	NA	NA
400.047	1.398	23	4	pump	6	-1.11428571428571	-2.18181818181818	control	control	6	grey	0	0	NA	NA
402.957	0.481	23	5	pump	6	-0.114285714285714	-1.18181818181818	control	control	6	grey	0	0	NA	NA
405.264	0.248	23	6	pump	6	0.885714285714286	-0.181818181818182	control	control	6	grey	0	0	NA	NA
409.697	0.511	24	1	pump	2	-4.11428571428571	-3.75	linear	explosion	2	red	0.1	0	NA	NA
411.847	1.497	24	2	pump	2	NA	NA	linear	explosion	2	red	0.2	0	414.53	2
421.43	0.533	25	1	pump	6	-4.11428571428571	-5.18181818181818	control	control	6	grey	0	0	NA	NA
423.964	0.361	25	2	pump	6	-3.11428571428571	-4.18181818181818	control	control	6	grey	0	0	NA	NA
426.347	0.281	25	3	pump	6	-2.11428571428571	-3.18181818181818	control	control	6	grey	0	0	NA	NA
428.397	0.298	25	4	pump	6	-1.11428571428571	-2.18181818181818	control	control	6	grey	0	0	NA	NA
430.698	0.393	25	5	pump	6	-0.114285714285714	-1.18181818181818	control	control	6	grey	0	0	NA	NA
432.997	0.333	25	6	pump	6	0.885714285714286	-0.181818181818182	control	control	6	grey	0	0	NA	NA
438.064	0.418	26	1	pump	6	-4.11428571428571	-3.75	linear	cashout	16	red	0.1	0.6	NA	NA
440.38	0.454	26	2	pump	6	-3.11428571428571	-2.75	linear	cashout	16	red	0.2	0.6	NA	NA
442.547	0.431	26	3	pump	6	-2.11428571428571	-1.75	linear	cashout	16	red	0.3	0.6	NA	NA
444.23	0.529	26	4	pump	6	-1.11428571428571	-0.75	linear	cashout	16	red	0.4	0.6	NA	NA
446.047	0.789	26	5	pump	6	-0.114285714285714	0.25	linear	cashout	16	red	0.5	0.6	NA	NA
448.297	0.615	26	6	pump	6	0.885714285714286	1.25	linear	cashout	16	red	0.6	0.6	NA	NA
450.974	0.584	26	7	cashout	6	NA	NA	linear	cashout	16	red	0.7	0.6	NA	NA
456.68	1.222	27	1	pump	7	-4.11428571428571	-3.5	exponential	cashout	10	blue	0.01	0.6	NA	NA
459.764	0.378	27	2	pump	7	-3.11428571428571	-2.5	exponential	cashout	10	blue	0.0428709385014517	0.6	NA	NA
461.23	0.587	27	3	pump	7	-2.11428571428571	-1.5	exponential	cashout	10	blue	0.100451085663051	0.6	NA	NA
463.764	0.561	27	4	pump	7	-1.11428571428571	-0.5	exponential	cashout	10	blue	0.183791736799526	0.6	NA	NA
465.614	0.494	27	5	pump	7	-0.114285714285714	0.5	exponential	cashout	10	blue	0.293654735772005	0.6	NA	NA
467.852	0.385	27	6	pump	7	0.885714285714286	1.5	exponential	cashout	10	blue	0.430643231586474	0.6	NA	NA
469.58	0.44	27	7	pump	7	1.88571428571429	2.5	exponential	cashout	10	blue	0.595258881579143	0.6	NA	NA
472.03	0.753	27	8	cashout	7	NA	NA	exponential	cashout	10	blue	0.787932424540747	0.6	NA	NA
483.547	0.556	28	1	pump	7	-4.11428571428571	-5.18181818181818	control	control	7	grey	0	0	NA	NA
486.112	0.218	28	2	pump	7	-3.11428571428571	-4.18181818181818	control	control	7	grey	0	0	NA	NA
487.547	0.506	28	3	pump	7	-2.11428571428571	-3.18181818181818	control	control	7	grey	0	0	NA	NA
489.464	0.443	28	4	pump	7	-1.11428571428571	-2.18181818181818	control	control	7	grey	0	0	NA	NA
491.03	0.295	28	5	pump	7	-0.114285714285714	-1.18181818181818	control	control	7	grey	0	0	NA	NA
492.864	0.262	28	6	pump	7	0.885714285714286	-0.181818181818182	control	control	7	grey	0	0	NA	NA
494.48	0.41	28	7	pump	7	1.88571428571429	0.818181818181818	control	control	7	grey	0	0	NA	NA
498.297	0.356	29	1	pump	5	-4.11428571428571	-3.5	exponential	cashout	13	blue	0.01	0.29	NA	NA
500.241	0.238	29	2	pump	5	-3.11428571428571	-2.5	exponential	cashout	13	blue	0.0428709385014517	0.29	NA	NA
501.797	0.32	29	3	pump	5	-2.11428571428571	-1.5	exponential	cashout	13	blue	0.100451085663051	0.29	NA	NA
503.214	0.339	29	4	pump	5	-1.11428571428571	-0.5	exponential	cashout	13	blue	0.183791736799526	0.29	NA	NA
505.589	0.764	29	5	pump	5	-0.114285714285714	0.5	exponential	cashout	13	blue	0.293654735772005	0.29	NA	NA
508.047	0.533	29	6	cashout	5	NA	NA	exponential	cashout	13	blue	0.430643231586474	0.29	NA	NA
515.28	0.448	30	1	pump	9	-4.11428571428571	-3.75	linear	explosion	9	red	0.1	0	NA	NA
516.93	0.259	30	2	pump	9	-3.11428571428571	-2.75	linear	explosion	9	red	0.2	0	NA	NA
518.264	0.288	30	3	pump	9	-2.11428571428571	-1.75	linear	explosion	9	red	0.3	0	NA	NA
520.397	0.537	30	4	pump	9	-1.11428571428571	-0.75	linear	explosion	9	red	0.4	0	NA	NA
522.497	0.244	30	5	pump	9	-0.114285714285714	0.25	linear	explosion	9	red	0.5	0	NA	NA
524.014	0.367	30	6	pump	9	0.885714285714286	1.25	linear	explosion	9	red	0.6	0	NA	NA
526.047	0.296	30	7	pump	9	1.88571428571429	2.25	linear	explosion	9	red	0.7	0	NA	NA
527.548	0.369	30	8	pump	9	2.88571428571429	3.25	linear	explosion	9	red	0.8	0	NA	NA
529.481	0.625	30	9	pump	9	NA	NA	linear	explosion	9	red	0.9	0	531.364	2
536.947	0.58	31	1	pump	5	-4.11428571428571	-3.75	linear	cashout	16	red	0.1	0.5	NA	NA
539.297	0.258	31	2	pump	5	-3.11428571428571	-2.75	linear	cashout	16	red	0.2	0.5	NA	NA
540.814	0.404	31	3	pump	5	-2.11428571428571	-1.75	linear	cashout	16	red	0.3	0.5	NA	NA
543.064	0.388	31	4	pump	5	-1.11428571428571	-0.75	linear	cashout	16	red	0.4	0.5	NA	NA
544.547	0.676	31	5	pump	5	-0.114285714285714	0.25	linear	cashout	16	red	0.5	0.5	NA	NA
546.864	0.548	31	6	cashout	5	NA	NA	linear	cashout	16	red	0.6	0.5	NA	NA
554.13	0.42	32	1	pump	4	-4.11428571428571	-3.5	exponential	explosion	4	blue	0.01	0	NA	NA
555.83	0.261	32	2	pump	4	-3.11428571428571	-2.5	exponential	explosion	4	blue	0.0428709385014517	0	NA	NA
557.997	1.586	32	3	pump	4	-2.11428571428571	-1.5	exponential	explosion	4	blue	0.100451085663051	0	NA	NA
561.497	0.383	32	4	pump	4	NA	NA	exponential	explosion	4	blue	0.183791736799526	0	563.014	2
568.768	1.025	33	1	pump	1	-4.11428571428571	-5.18181818181818	control	control	1	grey	0	0	NA	NA
573.947	0.516	34	1	pump	4	-4.11428571428571	-3.75	linear	cashout	8	red	0.1	0.4	NA	NA
576.064	0.761	34	2	pump	4	-3.11428571428571	-2.75	linear	cashout	8	red	0.2	0.4	NA	NA
578.564	0.3	34	3	pump	4	-2.11428571428571	-1.75	linear	cashout	8	red	0.3	0.4	NA	NA
580.83	0.344	34	4	pump	4	-1.11428571428571	-0.75	linear	cashout	8	red	0.4	0.4	NA	NA
582.714	0.464	34	5	cashout	4	NA	NA	linear	cashout	8	red	0.5	0.4	NA	NA
594.88	0.537	35	1	pump	4	-4.11428571428571	-3.5	exponential	cashout	9	blue	0.01	0.18	NA	NA
596.547	1.398	35	2	pump	4	-3.11428571428571	-2.5	exponential	cashout	9	blue	0.0428709385014517	0.18	NA	NA
599.797	0.526	35	3	pump	4	-2.11428571428571	-1.5	exponential	cashout	9	blue	0.100451085663051	0.18	NA	NA
602.18	0.777	35	4	pump	4	-1.11428571428571	-0.5	exponential	cashout	9	blue	0.183791736799526	0.18	NA	NA
604.739	0.821	35	5	cashout	4	NA	NA	exponential	cashout	9	blue	0.293654735772005	0.18	NA	NA
