onset	duration	trial	trial_id	choice	choice_bin	magnitude_sooner	delay_sooner	magnitude_later	delay_later	onset_choice_fb	duration_choice_fb
13.435	2.275	1	14	LL	2	27.84	0	34.8	2	15.735	1.5
21.785	2.003	2	28	SS	1	6.41	0	7.05	4	23.819	1.5
29.802	2.225	3	4	SS	1	13.42	0	14.77	2	32.052	1.5
35.219	2.128	4	11	LL	2	24.85	0	26.09	2	37.385	1.5
47.969	2.207	5	1	SS	1	37.69	0	38.07	2	50.202	1.5
53.085	2.574	6	37	SS	1	17.36	2	19.96	4	55.685	1.5
60.119	2.402	7	59	SS	1	11.17	2	11.73	6	62.552	1.50000000000001
67.202	2.35	8	19	SS	1	28.48	0	29.91	4	69.585	1.5
74.002	2.099	9	62	SS	1	25.3	2	31.63	6	76.135	1.5
84.552	2.229	10	38	LL	2	32.44	2	40.55	4	86.819	1.5
94.569	2.36	11	75	SS	1	20.18	4	21.19	6	96.952	1.5
100.702	2.119	12	9	SS	1	22.32	0	22.54	2	102.835	1.5
112.202	2.771	13	29	LL	2	32.7	0	37.6	4	115.002	1.5
120.119	2.13	14	47	SS	1	20.07	2	27.1	4	122.277	1.5
127.869	1.917	15	50	SS	1	20.53	2	21.14	6	129.819	1.5
133.419	2.467	16	2	LL	2	24.28	0	25	2	135.919	1.5
139.921	2.536	17	8	LL	2	14.49	0	21.74	2	142.485	1.5
147.319	2.295	18	74	SS	1	13.42	4	13.82	6	149.635	1.5
154.102	2.285	19	26	SS	1	38.48	0	39.63	4	156.402	1.5
160.252	2.476	20	6	LL	2	10.5	0	13.13	2	162.752	1.5
167.035	1.857	21	27	SS	1	22.78	0	23.92	4	168.919	1.5
173.985	2.432	22	45	SS	1	36.8	2	42.32	4	176.452	1.5
185.635	2.505	23	16	LL	2	19.29	0	28.94	2	188.169	1.5
192.869	2.573	24	54	SS	1	14.88	2	18.61	6	195.469	1.5
198.602	3.27	25	55	SS	1	29.45	2	39.75	6	201.9	1.5
212.119	3.586	26	77	SS	1	25.13	4	28.9	6	215.735	1.5
227.869	3.008	27	78	SS	1	18.61	4	23.27	6	230.902	1.5
240.17	1.983	28	10	SS	1	21.66	0	22.31	2	242.169	1.5
246.752	2.426	29	64	LL	2	26.95	2	40.42	6	249.202	1.5
254.752	1.661	30	41	SS	1	11.65	2	11.77	4	256.435	1.5
264.719	2.443	31	7	LL	2	19.45	0	26.26	2	267.185	1.5
277.052	2.601	32	61	SS	1	18.24	2	20.97	6	279.685	1.5
283.002	2.602	33	65	SS	1	13.22	4	13.35	6	285.635	1.5
292.319	2.743	34	71	SS	1	10.98	4	14.83	6	295.085	1.5
303.698	2.273	35	25	SS	1	9.89	0	9.99	4	305.998	1.5
311.119	2.756	36	60	SS	1	6.45	2	7.1	6	313.902	1.5
321.552	2.236	37	39	LL	2	14.56	2	19.66	4	323.819	1.5
328.185	1.984	38	33	SS	1	25.56	2	25.82	4	330.202	1.5
335.502	2.402	39	44	SS	1	22.39	2	24.62	4	337.92	1.5
343.919	2.424	40	32	SS	1	11.53	0	17.29	4	346.369	1.5
353.535	2.669	41	70	LL	2	25.9	4	32.37	6	356.235	1.5
363.061	2.251	42	35	SS	1	20.14	2	21.15	4	365.335	1.5
368.152	2.445	43	79	SS	1	14.58	4	19.68	6	370.619	1.5
376.085	2.508	44	53	SS	1	35.19	2	40.46	6	378.619	1.5
382.752	2.945	45	72	LL	2	29.27	4	43.91	6	385.72	1.5
391.819	2.54	46	5	SS	1	32.79	0	37.71	2	394.385	1.5
404.952	2.694	47	76	SS	1	22.92	4	25.21	6	407.669	1.5
412.169	1.961	48	15	SS	1	16.47	0	22.24	2	414.152	1.5
422.952	2.503	49	48	LL	2	22.77	2	34.16	4	425.485	1.5
429.735	2.519	50	63	LL	2	25.61	2	34.57	6	432.285	1.5
435.687	2.445	51	12	SS	1	21.96	0	24.16	2	438.153	1.5
443.919	2.67	52	68	SS	1	25.55	4	28.11	6	446.616	1.5
454.352	2.315	53	20	SS	1	30.4	0	33.44	4	456.685	1.5
462.702	2.826	54	31	LL	2	23.44	0	31.64	4	465.552	1.5
470.969	2.088	55	23	SS	1	6.11	0	8.25	4	473.085	1.5
475.919	2.545	56	69	SS	1	22.62	4	26.01	6	478.502	1.5
483.321	2.174	57	30	LL	2	25.92	0	32.4	4	485.52	1.5
493.002	1.721	58	42	SS	1	9.5	2	9.79	4	494.752	1.5
499.785	1.843	59	18	SS	1	5.78	0	5.95	4	501.652	1.5
509.135	3.15	60	51	SS	1	37.85	2	39.74	6	512.318	1.5
519.618	2.178	61	24	SS	1	11.37	0	17.06	4	521.824	1.5
527.685	2.286	62	34	SS	1	7.42	2	7.64	4	530.002	1.5
536.603	2.612	63	36	SS	1	18.11	2	19.92	4	539.235	1.5
550.185	2.74	64	56	LL	2	26.96	2	40.44	6	552.952	1.5
556.552	2.727	65	43	SS	1	24.99	2	26.24	4	559.302	1.5
562.852	2.099	66	40	SS	1	12.44	2	18.66	4	564.985	1.5
569.702	1.666	67	67	SS	1	6.26	4	6.57	6	571.402	1.5
576.118	1.774	68	73	SS	1	9.59	4	9.68	6	577.918	1.5
584.719	1.939	69	21	SS	1	19.12	0	21.99	4	586.685	1.5
590.368	1.802	70	3	SS	1	10.51	0	11.04	2	592.185	1.5
595.616	2.285	71	57	SS	1	28.25	2	28.53	6	597.918	1.5
605.068	2.238	72	80	SS	1	9.39	4	14.08	6	607.335	1.5
612.418	2.093	73	58	SS	1	12.69	2	13.07	6	614.535	1.5
617.368	1.773	74	17	SS	1	22.32	0	22.55	4	619.168	1.5
626.885	2.054	75	22	LL	2	18.4	0	23	4	628.968	1.5
637.335	3.427	76	46	LL	2	30.77	2	38.46	4	640.785	1.5
645.068	1.629	77	49	SS	1	23.7	2	23.94	6	646.718	1.5
652.635	1.655	78	66	SS	1	11.96	4	12.32	6	654.318	1.5
664.368	2.554	79	52	SS	1	30.66	2	33.73	6	666.952	1.5
671.385	1.877	80	13	SS	1	16.21	0	18.64	2	673.289	1.5
