onset	duration	trial	trial_id	choice	choice_bin	magnitude_sooner	delay_sooner	magnitude_later	delay_later	onset_choice_fb	duration_choice_fb
14.25	5	1	59	NA	NA	11.17	2	11.73	6	NA	NA
28.045	1.792	2	5	LL	2	32.79	0	37.71	2	29.861	1.5
34.776	2.127	3	21	SS	1	19.12	0	21.99	4	36.925	1.5
40.657	3.646	4	80	SS	1	9.39	4	14.08	6	44.323	1.5
50.804	1.278	5	69	LL	2	22.62	4	26.01	6	52.103	1.5
55.336	2.918	6	65	SS	1	13.22	4	13.35	6	58.268	1.5
69.648	1.498	7	18	SS	1	5.78	0	5.95	4	71.164	1.5
73.713	2.308	8	14	LL	2	27.84	0	34.8	2	76.045	1.5
78.678	1.985	9	38	LL	2	32.44	2	40.55	4	80.677	1.5
85.442	1.273	10	3	SS	1	10.51	0	11.04	2	86.742	1.5
91.324	1.692	11	49	SS	1	23.7	2	23.94	6	93.04	1.5
96.988	1.778	12	57	SS	1	28.25	2	28.53	6	98.788	1.5
101.837	2.531	13	63	LL	2	25.61	2	34.57	6	104.386	1.5
109.151	1.987	14	56	LL	2	26.96	2	40.44	6	111.15	1.5
121.03	2.672	15	72	LL	2	29.27	4	43.91	6	123.729	1.5
127.478	1.615	16	76	SS	1	22.92	4	25.21	6	129.111	1.5
135.209	3.199	17	48	LL	2	22.77	2	34.16	4	138.424	1.5
146.422	3.516	18	79	LL	2	14.58	4	19.68	6	149.954	1.5
156.168	1.965	19	55	LL	2	29.45	2	39.75	6	158.151	1.5
161.816	1.764	20	26	SS	1	38.48	0	39.63	4	163.599	1.5
168.347	1.819	21	77	SS	1	25.13	4	28.9	6	170.18	1.5
174.829	2.488	22	54	SS	1	14.88	2	18.61	6	177.344	1.5
182.493	1.331	23	42	SS	1	9.5	2	9.79	4	183.842	1.5
186.791	1.347	24	4	SS	1	13.42	0	14.77	2	188.157	1.5
198.787	5	25	66	NA	NA	11.96	4	12.32	6	NA	NA
213.082	1.763	26	11	LL	2	24.85	0	26.09	2	214.865	1.5
221.996	1.754	27	10	SS	1	21.66	0	22.31	2	223.762	1.5
234.175	2.163	28	22	SS	1	18.4	0	23	4	236.358	1.5
242.756	1.797	29	1	SS	1	37.69	0	38.07	2	244.572	1.5
249.986	1.359	30	34	SS	1	7.42	2	7.64	4	251.369	1.5
255.668	2.252	31	62	SS	1	25.3	2	31.63	6	257.934	1.5
260.583	3.13	32	46	LL	2	30.77	2	38.46	4	263.732	1.5
267.664	1.525	33	36	SS	1	18.11	2	19.92	4	269.213	1.5
278.044	1.839	34	23	SS	1	6.11	0	8.25	4	279.91	1.5
285.741	2.308	35	52	SS	1	30.66	2	33.73	6	288.074	1.5
295.304	1.561	36	58	SS	1	12.69	2	13.07	6	296.887	1.5
300.803	1.145	37	6	SS	1	10.5	0	13.13	2	301.969	1.5
305.518	1.829	38	53	SS	1	35.19	2	40.46	6	307.367	1.5
311.899	1.02	39	30	SS	1	25.92	0	32.4	4	312.932	1.5
317.814	1.213	40	25	SS	1	9.89	0	9.99	4	319.046	1.5
322.978	1.063	41	20	SS	1	30.4	0	33.44	4	324.061	1.5
333.691	1.537	42	71	SS	1	10.98	4	14.83	6	335.241	1.5
339.939	0.917	43	27	SS	1	22.78	0	23.92	4	340.872	1.5
350.836	2.185	44	29	SS	1	32.7	0	37.6	4	353.035	1.5
356.217	1.353	45	78	SS	1	18.61	4	23.27	6	357.583	1.5
362.948	1.715	46	68	SS	1	25.55	4	28.11	6	364.681	1.5
369.529	1.135	47	75	SS	1	20.18	4	21.19	6	370.679	1.5
374.744	2.215	48	33	SS	1	25.56	2	25.82	4	376.977	1.5
384.074	3.201	49	47	SS	1	20.07	2	27.1	4	387.29	1.5
391.805	1.397	50	60	SS	1	6.45	2	7.1	6	393.221	1.5
404.484	1.119	51	32	SS	1	11.53	0	17.29	4	405.617	1.5
417.63	2.172	52	64	LL	2	26.95	2	40.42	6	419.829	1.5
424.044	1.83	53	51	SS	1	37.85	2	39.74	6	425.894	1.5
429.226	1.257	54	9	SS	1	22.32	0	22.54	2	430.509	1.5
434.207	2.25	55	24	LL	2	11.37	0	17.06	4	436.473	1.5
440.789	1.932	56	50	SS	1	20.53	2	21.14	6	442.738	1.5
449.286	2.095	57	43	SS	1	24.99	2	26.24	4	451.402	1.5
457.733	1.747	58	74	SS	1	13.42	4	13.82	6	459.499	1.5
463.164	1.561	59	2	SS	1	24.28	0	25	2	464.747	1.5
470.845	1.934	60	19	SS	1	28.48	0	29.91	4	472.794	1.5
480.109	1.223	61	15	SS	1	16.47	0	22.24	2	481.358	1.5
485.89	1.577	62	13	SS	1	16.21	0	18.64	2	487.489	1.5
491.005	1.09	63	17	SS	1	22.32	0	22.55	4	492.121	1.5
496.22	1.186	64	73	SS	1	9.59	4	9.68	6	497.419	1.5
500.585	1.254	65	39	SS	1	14.56	2	19.66	4	501.851	1.5
506.783	2.02	66	31	SS	1	23.44	0	31.64	4	508.816	1.5
511.881	1.068	67	7	SS	1	19.45	0	26.26	2	512.964	1.5
518.646	1.273	68	41	SS	1	11.65	2	11.77	4	519.945	1.5
525.31	2.162	69	8	LL	2	14.49	0	21.74	2	527.493	1.5
530.725	1.993	70	16	LL	2	19.29	0	28.94	2	532.741	1.5
537.073	1.183	71	28	SS	1	6.41	0	7.05	4	538.272	1.5
543.854	2.193	72	37	SS	1	17.36	2	19.96	4	546.07	1.5
557.849	1.743	73	12	SS	1	21.96	0	24.16	2	559.615	1.5
563.347	1.663	74	35	SS	1	20.14	2	21.15	4	565.03	1.5
567.662	1.087	75	44	SS	1	22.39	2	24.62	4	568.762	1.5
571.778	2.216	76	40	SS	1	12.44	2	18.66	4	574.01	1.5
577.676	2.05	77	61	SS	1	18.24	2	20.97	6	579.742	1.5
585.123	1.855	78	45	SS	1	36.8	2	42.32	4	587.006	1.5
591.288	1.379	79	70	SS	1	25.9	4	32.37	6	592.687	1.5
598.102	2.03	80	67	SS	1	6.26	4	6.57	6	600.151	1.5
