onset	duration	balloon_number	balloon_idx	response	pumps	pumps_demean_all	pumps_demean_type	balloon_type	balloon_outcome	balloon_maxpumps	balloon_colour	balloon_payoff_cumulative	balloon_payoff_total	onset_explosion	duration_explosion
4.061	1.203	1	1	pump	15	-4.57575757575758	-7.09090909090909	control	control	15	grey	0	0	NA	NA
6.61	0.695	1	2	pump	15	-3.57575757575758	-6.09090909090909	control	control	15	grey	0	0	NA	NA
9.342	0.513	1	3	pump	15	-2.57575757575758	-5.09090909090909	control	control	15	grey	0	0	NA	NA
10.942	0.512	1	4	pump	15	-1.57575757575758	-4.09090909090909	control	control	15	grey	0	0	NA	NA
12.591	0.347	1	5	pump	15	-0.575757575757576	-3.09090909090909	control	control	15	grey	0	0	NA	NA
14.84	0.606	1	6	pump	15	0.424242424242424	-2.09090909090909	control	control	15	grey	0	0	NA	NA
17.206	0.479	1	7	pump	15	1.42424242424242	-1.09090909090909	control	control	15	grey	0	0	NA	NA
19.322	0.489	1	8	pump	15	2.42424242424242	-0.0909090909090917	control	control	15	grey	0	0	NA	NA
20.905	1.038	1	9	pump	15	3.42424242424242	0.909090909090908	control	control	15	grey	0	0	NA	NA
23.771	1.023	1	10	pump	15	4.42424242424242	1.90909090909091	control	control	15	grey	0	0	NA	NA
26.42	0.794	1	11	pump	15	5.42424242424242	2.90909090909091	control	control	15	grey	0	0	NA	NA
29.019	1.564	1	12	pump	15	6.42424242424242	3.90909090909091	control	control	15	grey	0	0	NA	NA
32.101	0.824	1	13	pump	15	7.42424242424242	4.90909090909091	control	control	15	grey	0	0	NA	NA
34.001	0.672	1	14	pump	15	8.42424242424242	5.90909090909091	control	control	15	grey	0	0	NA	NA
36.733	1.646	1	15	pump	15	9.42424242424242	6.90909090909091	control	control	15	grey	0	0	NA	NA
42.181	0.942	2	1	pump	5	-4.57575757575758	-2.72727272727273	exponential	cashout	9	blue	0.01	0.29	NA	NA
44.197	0.651	2	2	pump	5	-3.57575757575758	-1.72727272727273	exponential	cashout	9	blue	0.0428709385014517	0.29	NA	NA
46.846	0.873	2	3	pump	5	-2.57575757575758	-0.727272727272727	exponential	cashout	9	blue	0.100451085663051	0.29	NA	NA
48.846	1.031	2	4	pump	5	-1.57575757575758	0.272727272727273	exponential	cashout	9	blue	0.183791736799526	0.29	NA	NA
51.578	1.034	2	5	pump	5	-0.575757575757576	1.27272727272727	exponential	cashout	9	blue	0.293654735772005	0.29	NA	NA
53.877	0.636	2	6	cashout	5	NA	NA	exponential	cashout	9	blue	0.430643231586474	0.29	NA	NA
61.108	0.643	3	1	pump	8	-4.57575757575758	-3.90909090909091	linear	explosion	8	red	0.1	0	NA	NA
63.157	0.498	3	2	pump	8	-3.57575757575758	-2.90909090909091	linear	explosion	8	red	0.2	0	NA	NA
65.44	0.55	3	3	pump	8	-2.57575757575758	-1.90909090909091	linear	explosion	8	red	0.3	0	NA	NA
67.473	0.524	3	4	pump	8	-1.57575757575758	-0.909090909090909	linear	explosion	8	red	0.4	0	NA	NA
69.072	1.053	3	5	pump	8	-0.575757575757576	0.0909090909090908	linear	explosion	8	red	0.5	0	NA	NA
72.004	0.825	3	6	pump	8	0.424242424242424	1.09090909090909	linear	explosion	8	red	0.6	0	NA	NA
74.637	1.149	3	7	pump	8	1.42424242424242	2.09090909090909	linear	explosion	8	red	0.7	0	NA	NA
76.886	1.254	3	8	pump	8	NA	NA	linear	explosion	8	red	0.8	0	79.635	2
82.951	0.803	4	1	pump	13	-4.57575757575758	-7.09090909090909	control	control	13	grey	0	0	NA	NA
85.633	0.56	4	2	pump	13	-3.57575757575758	-6.09090909090909	control	control	13	grey	0	0	NA	NA
87.416	0.586	4	3	pump	13	-2.57575757575758	-5.09090909090909	control	control	13	grey	0	0	NA	NA
89.915	1.491	4	4	pump	13	-1.57575757575758	-4.09090909090909	control	control	13	grey	0	0	NA	NA
93.164	1.488	4	5	pump	13	-0.575757575757576	-3.09090909090909	control	control	13	grey	0	0	NA	NA
96.046	0.036	4	6	pump	13	0.424242424242424	-2.09090909090909	control	control	13	grey	0	0	NA	NA
97.296	0.425	4	7	pump	13	1.42424242424242	-1.09090909090909	control	control	13	grey	0	0	NA	NA
98.945	0.511	4	8	pump	13	2.42424242424242	-0.0909090909090917	control	control	13	grey	0	0	NA	NA
101.161	0.546	4	9	pump	13	3.42424242424242	0.909090909090908	control	control	13	grey	0	0	NA	NA
103.094	0.453	4	10	pump	13	4.42424242424242	1.90909090909091	control	control	13	grey	0	0	NA	NA
104.677	0.553	4	11	pump	13	5.42424242424242	2.90909090909091	control	control	13	grey	0	0	NA	NA
106.509	0.496	4	12	pump	13	6.42424242424242	3.90909090909091	control	control	13	grey	0	0	NA	NA
108.342	0.602	4	13	pump	13	7.42424242424242	4.90909090909091	control	control	13	grey	0	0	NA	NA
118.105	0.84	5	1	pump	5	-4.57575757575758	-3.90909090909091	linear	cashout	13	red	0.1	0.5	NA	NA
120.771	0.438	5	2	pump	5	-3.57575757575758	-2.90909090909091	linear	cashout	13	red	0.2	0.5	NA	NA
123.104	0.741	5	3	pump	5	-2.57575757575758	-1.90909090909091	linear	cashout	13	red	0.3	0.5	NA	NA
125.353	0.899	5	4	pump	5	-1.57575757575758	-0.909090909090909	linear	cashout	13	red	0.4	0.5	NA	NA
127.752	1.002	5	5	pump	5	-0.575757575757576	0.0909090909090908	linear	cashout	13	red	0.5	0.5	NA	NA
130.185	0.808	5	6	cashout	5	NA	NA	linear	cashout	13	red	0.6	0.5	NA	NA
136.499	0.675	6	1	pump	3	-4.57575757575758	-2.72727272727273	exponential	cashout	16	blue	0.01	0.1	NA	NA
138.832	0.744	6	2	pump	3	-3.57575757575758	-1.72727272727273	exponential	cashout	16	blue	0.0428709385014517	0.1	NA	NA
141.548	0.845	6	3	pump	3	-2.57575757575758	-0.727272727272727	exponential	cashout	16	blue	0.100451085663051	0.1	NA	NA
143.63	0.635	6	4	cashout	3	NA	NA	exponential	cashout	16	blue	0.183791736799526	0.1	NA	NA
149.562	1.187	7	1	pump	5	-4.57575757575758	-2.72727272727273	exponential	cashout	13	blue	0.01	0.29	NA	NA
152.044	0.632	7	2	pump	5	-3.57575757575758	-1.72727272727273	exponential	cashout	13	blue	0.0428709385014517	0.29	NA	NA
154.11	0.869	7	3	pump	5	-2.57575757575758	-0.727272727272727	exponential	cashout	13	blue	0.100451085663051	0.29	NA	NA
156.542	0.774	7	4	pump	5	-1.57575757575758	0.272727272727273	exponential	cashout	13	blue	0.183791736799526	0.29	NA	NA
159.075	0.586	7	5	pump	5	-0.575757575757576	1.27272727272727	exponential	cashout	13	blue	0.293654735772005	0.29	NA	NA
161.041	0.616	7	6	cashout	5	NA	NA	exponential	cashout	13	blue	0.430643231586474	0.29	NA	NA
168.472	0.763	8	1	pump	9	-4.57575757575758	-7.09090909090909	control	control	9	grey	0	0	NA	NA
170.488	0.542	8	2	pump	9	-3.57575757575758	-6.09090909090909	control	control	9	grey	0	0	NA	NA
172.804	0.428	8	3	pump	9	-2.57575757575758	-5.09090909090909	control	control	9	grey	0	0	NA	NA
175.153	0.409	8	4	pump	9	-1.57575757575758	-4.09090909090909	control	control	9	grey	0	0	NA	NA
176.869	0.541	8	5	pump	9	-0.575757575757576	-3.09090909090909	control	control	9	grey	0	0	NA	NA
178.652	0.852	8	6	pump	9	0.424242424242424	-2.09090909090909	control	control	9	grey	0	0	NA	NA
181.101	0.455	8	7	pump	9	1.42424242424242	-1.09090909090909	control	control	9	grey	0	0	NA	NA
182.7	0.563	8	8	pump	9	2.42424242424242	-0.0909090909090917	control	control	9	grey	0	0	NA	NA
184.683	0.426	8	9	pump	9	3.42424242424242	0.909090909090908	control	control	9	grey	0	0	NA	NA
188.698	0.935	9	1	pump	5	-4.57575757575758	-3.90909090909091	linear	cashout	15	red	0.1	0.5	NA	NA
191.131	0.601	9	2	pump	5	-3.57575757575758	-2.90909090909091	linear	cashout	15	red	0.2	0.5	NA	NA
193.063	0.65	9	3	pump	5	-2.57575757575758	-1.90909090909091	linear	cashout	15	red	0.3	0.5	NA	NA
194.896	0.828	9	4	pump	5	-1.57575757575758	-0.909090909090909	linear	cashout	15	red	0.4	0.5	NA	NA
197.112	0.861	9	5	pump	5	-0.575757575757576	0.0909090909090908	linear	cashout	15	red	0.5	0.5	NA	NA
199.061	0.599	9	6	cashout	5	NA	NA	linear	cashout	15	red	0.6	0.5	NA	NA
206.342	0.43	10	1	pump	6	-4.57575757575758	-7.09090909090909	control	control	6	grey	0	0	NA	NA
208.825	0.376	10	2	pump	6	-3.57575757575758	-6.09090909090909	control	control	6	grey	0	0	NA	NA
210.691	0.403	10	3	pump	6	-2.57575757575758	-5.09090909090909	control	control	6	grey	0	0	NA	NA
212.99	0.401	10	4	pump	6	-1.57575757575758	-4.09090909090909	control	control	6	grey	0	0	NA	NA
214.523	0.511	10	5	pump	6	-0.575757575757576	-3.09090909090909	control	control	6	grey	0	0	NA	NA
216.922	0.322	10	6	pump	6	0.424242424242424	-2.09090909090909	control	control	6	grey	0	0	NA	NA
225.086	0.763	11	1	pump	6	-4.57575757575758	-2.72727272727273	exponential	cashout	12	blue	0.01	0.43	NA	NA
227.668	0.515	11	2	pump	6	-3.57575757575758	-1.72727272727273	exponential	cashout	12	blue	0.0428709385014517	0.43	NA	NA
230.051	0.651	11	3	pump	6	-2.57575757575758	-0.727272727272727	exponential	cashout	12	blue	0.100451085663051	0.43	NA	NA
232.4	0.765	11	4	pump	6	-1.57575757575758	0.272727272727273	exponential	cashout	12	blue	0.183791736799526	0.43	NA	NA
235.033	0.674	11	5	pump	6	-0.575757575757576	1.27272727272727	exponential	cashout	12	blue	0.293654735772005	0.43	NA	NA
236.999	0.898	11	6	pump	6	0.424242424242424	2.27272727272727	exponential	cashout	12	blue	0.430643231586474	0.43	NA	NA
239.748	0.611	11	7	cashout	6	NA	NA	exponential	cashout	12	blue	0.595258881579143	0.43	NA	NA
251.161	0.547	12	1	pump	8	-4.57575757575758	-3.90909090909091	linear	cashout	12	red	0.1	0.8	NA	NA
253.21	0.434	12	2	pump	8	-3.57575757575758	-2.90909090909091	linear	cashout	12	red	0.2	0.8	NA	NA
255.359	0.391	12	3	pump	8	-2.57575757575758	-1.90909090909091	linear	cashout	12	red	0.3	0.8	NA	NA
257.325	0.408	12	4	pump	8	-1.57575757575758	-0.909090909090909	linear	cashout	12	red	0.4	0.8	NA	NA
258.975	0.481	12	5	pump	8	-0.575757575757576	0.0909090909090908	linear	cashout	12	red	0.5	0.8	NA	NA
260.641	0.778	12	6	pump	8	0.424242424242424	1.09090909090909	linear	cashout	12	red	0.6	0.8	NA	NA
262.873	0.833	12	7	pump	8	1.42424242424242	2.09090909090909	linear	cashout	12	red	0.7	0.8	NA	NA
264.923	0.973	12	8	pump	8	2.42424242424242	3.09090909090909	linear	cashout	12	red	0.8	0.8	NA	NA
267.205	0.613	12	9	cashout	8	NA	NA	linear	cashout	12	red	0.9	0.8	NA	NA
274.403	0.813	13	1	pump	6	-4.57575757575758	-7.09090909090909	control	control	6	grey	0	0	NA	NA
277.018	0.639	13	2	pump	6	-3.57575757575758	-6.09090909090909	control	control	6	grey	0	0	NA	NA
279.368	0.563	13	3	pump	6	-2.57575757575758	-5.09090909090909	control	control	6	grey	0	0	NA	NA
281.917	0.427	13	4	pump	6	-1.57575757575758	-4.09090909090909	control	control	6	grey	0	0	NA	NA
283.816	0.693	13	5	pump	6	-0.575757575757576	-3.09090909090909	control	control	6	grey	0	0	NA	NA
286.282	0.556	13	6	pump	6	0.424242424242424	-2.09090909090909	control	control	6	grey	0	0	NA	NA
296.928	0.778	14	1	pump	2	-4.57575757575758	-3.90909090909091	linear	explosion	2	red	0.1	0	NA	NA
299.411	0.506	14	2	pump	2	NA	NA	linear	explosion	2	red	0.2	0	301.31	2
304.493	0.64	15	1	pump	2	-4.57575757575758	-2.72727272727273	exponential	explosion	2	blue	0.01	0	NA	NA
306.958	0.544	15	2	pump	2	NA	NA	exponential	explosion	2	blue	0.0428709385014517	0	309.274	2
313.39	0.572	16	1	pump	5	-4.57575757575758	-3.90909090909091	linear	cashout	16	red	0.1	0.5	NA	NA
315.739	0.479	16	2	pump	5	-3.57575757575758	-2.90909090909091	linear	cashout	16	red	0.2	0.5	NA	NA
317.955	0.426	16	3	pump	5	-2.57575757575758	-1.90909090909091	linear	cashout	16	red	0.3	0.5	NA	NA
320.137	0.523	16	4	pump	5	-1.57575757575758	-0.909090909090909	linear	cashout	16	red	0.4	0.5	NA	NA
322.586	0.968	16	5	pump	5	-0.575757575757576	0.0909090909090908	linear	cashout	16	red	0.5	0.5	NA	NA
324.802	0.708	16	6	cashout	5	NA	NA	linear	cashout	16	red	0.6	0.5	NA	NA
334.499	0.969	17	1	pump	7	-4.57575757575758	-7.09090909090909	control	control	7	grey	0	0	NA	NA
337.515	0.396	17	2	pump	7	-3.57575757575758	-6.09090909090909	control	control	7	grey	0	0	NA	NA
339.364	0.489	17	3	pump	7	-2.57575757575758	-5.09090909090909	control	control	7	grey	0	0	NA	NA
341.23	0.579	17	4	pump	7	-1.57575757575758	-4.09090909090909	control	control	7	grey	0	0	NA	NA
343.529	0.52	17	5	pump	7	-0.575757575757576	-3.09090909090909	control	control	7	grey	0	0	NA	NA
345.629	0.514	17	6	pump	7	0.424242424242424	-2.09090909090909	control	control	7	grey	0	0	NA	NA
347.295	0.842	17	7	pump	7	1.42424242424242	-1.09090909090909	control	control	7	grey	0	0	NA	NA
351.077	0.771	18	1	pump	3	-4.57575757575758	-2.72727272727273	exponential	explosion	3	blue	0.01	0	NA	NA
353.409	0.423	18	2	pump	3	-3.57575757575758	-1.72727272727273	exponential	explosion	3	blue	0.0428709385014517	0	NA	NA
355.675	0.537	18	3	pump	3	NA	NA	exponential	explosion	3	blue	0.100451085663051	0	358.258	2
366.572	0.588	19	1	pump	9	-4.57575757575758	-7.09090909090909	control	control	9	grey	0	0	NA	NA
368.288	0.592	19	2	pump	9	-3.57575757575758	-6.09090909090909	control	control	9	grey	0	0	NA	NA
370.637	0.016	19	3	pump	9	-2.57575757575758	-5.09090909090909	control	control	9	grey	0	0	NA	NA
371.77	0.613	19	4	pump	9	-1.57575757575758	-4.09090909090909	control	control	9	grey	0	0	NA	NA
374.386	0.472	19	5	pump	9	-0.575757575757576	-3.09090909090909	control	control	9	grey	0	0	NA	NA
376.435	0.447	19	6	pump	9	0.424242424242424	-2.09090909090909	control	control	9	grey	0	0	NA	NA
378.234	0.682	19	7	pump	9	1.42424242424242	-1.09090909090909	control	control	9	grey	0	0	NA	NA
380.284	0.658	19	8	pump	9	2.42424242424242	-0.0909090909090917	control	control	9	grey	0	0	NA	NA
382.116	0.668	19	9	pump	9	3.42424242424242	0.909090909090908	control	control	9	grey	0	0	NA	NA
385.632	0.754	20	1	pump	2	-4.57575757575758	-3.90909090909091	linear	explosion	2	red	0.1	0	NA	NA
387.664	0.763	20	2	pump	2	NA	NA	linear	explosion	2	red	0.2	0	389.88	2
393.596	0.791	21	1	pump	1	-4.57575757575758	-2.72727272727273	exponential	cashout	4	blue	0.01	0.01	NA	NA
395.712	0.603	21	2	cashout	1	NA	NA	exponential	cashout	4	blue	0.0428709385014517	0.01	NA	NA
402.909	0.556	22	1	pump	3	-4.57575757575758	-7.09090909090909	control	control	3	grey	0	0	NA	NA
404.592	0.681	22	2	pump	3	-3.57575757575758	-6.09090909090909	control	control	3	grey	0	0	NA	NA
407.158	0.543	22	3	pump	3	-2.57575757575758	-5.09090909090909	control	control	3	grey	0	0	NA	NA
410.557	0.724	23	1	pump	5	-4.57575757575758	-3.90909090909091	linear	cashout	12	red	0.1	0.5	NA	NA
412.423	0.486	23	2	pump	5	-3.57575757575758	-2.90909090909091	linear	cashout	12	red	0.2	0.5	NA	NA
414.389	0.581	23	3	pump	5	-2.57575757575758	-1.90909090909091	linear	cashout	12	red	0.3	0.5	NA	NA
416.238	0.761	23	4	pump	5	-1.57575757575758	-0.909090909090909	linear	cashout	12	red	0.4	0.5	NA	NA
418.354	0.897	23	5	pump	5	-0.575757575757576	0.0909090909090908	linear	cashout	12	red	0.5	0.5	NA	NA
420.437	0.547	23	6	cashout	5	NA	NA	linear	cashout	12	red	0.6	0.5	NA	NA
428.651	0.654	24	1	pump	5	-4.57575757575758	-2.72727272727273	exponential	cashout	9	blue	0.01	0.29	NA	NA
430.817	0.737	24	2	pump	5	-3.57575757575758	-1.72727272727273	exponential	cashout	9	blue	0.0428709385014517	0.29	NA	NA
433.382	0.691	24	3	pump	5	-2.57575757575758	-0.727272727272727	exponential	cashout	9	blue	0.100451085663051	0.29	NA	NA
435.981	0.71	24	4	pump	5	-1.57575757575758	0.272727272727273	exponential	cashout	9	blue	0.183791736799526	0.29	NA	NA
438.047	0.76	24	5	pump	5	-0.575757575757576	1.27272727272727	exponential	cashout	9	blue	0.293654735772005	0.29	NA	NA
440.497	0.582	24	6	cashout	5	NA	NA	exponential	cashout	9	blue	0.430643231586474	0.29	NA	NA
446.211	0.667	25	1	pump	5	-4.57575757575758	-3.90909090909091	linear	cashout	12	red	0.1	0.5	NA	NA
448.261	0.651	25	2	pump	5	-3.57575757575758	-2.90909090909091	linear	cashout	12	red	0.2	0.5	NA	NA
450.027	0.751	25	3	pump	5	-2.57575757575758	-1.90909090909091	linear	cashout	12	red	0.3	0.5	NA	NA
452.709	0.859	25	4	pump	5	-1.57575757575758	-0.909090909090909	linear	cashout	12	red	0.4	0.5	NA	NA
455.092	0.961	25	5	pump	5	-0.575757575757576	0.0909090909090908	linear	cashout	12	red	0.5	0.5	NA	NA
457.741	0.533	25	6	cashout	5	NA	NA	linear	cashout	12	red	0.6	0.5	NA	NA
465.738	0.722	26	1	pump	4	-4.57575757575758	-7.09090909090909	control	control	4	grey	0	0	NA	NA
467.671	0.871	26	2	pump	4	-3.57575757575758	-6.09090909090909	control	control	4	grey	0	0	NA	NA
469.753	0.461	26	3	pump	4	-2.57575757575758	-5.09090909090909	control	control	4	grey	0	0	NA	NA
472.169	0.048	26	4	pump	4	-1.57575757575758	-4.09090909090909	control	control	4	grey	0	0	NA	NA
484.282	0.643	27	1	pump	1	NA	NA	exponential	explosion	1	blue	0.01	0	486.731	2
493.495	0.614	28	1	pump	5	-4.57575757575758	-3.90909090909091	linear	cashout	7	red	0.1	0.5	NA	NA
496.145	0.565	28	2	pump	5	-3.57575757575758	-2.90909090909091	linear	cashout	7	red	0.2	0.5	NA	NA
497.894	0.718	28	3	pump	5	-2.57575757575758	-1.90909090909091	linear	cashout	7	red	0.3	0.5	NA	NA
499.81	0.761	28	4	pump	5	-1.57575757575758	-0.909090909090909	linear	cashout	7	red	0.4	0.5	NA	NA
502.143	0.79	28	5	pump	5	-0.575757575757576	0.0909090909090908	linear	cashout	7	red	0.5	0.5	NA	NA
504.942	0.568	28	6	cashout	5	NA	NA	linear	cashout	7	red	0.6	0.5	NA	NA
515.238	0.593	29	1	pump	5	-4.57575757575758	-2.72727272727273	exponential	cashout	16	blue	0.01	0.29	NA	NA
517.321	0.737	29	2	pump	5	-3.57575757575758	-1.72727272727273	exponential	cashout	16	blue	0.0428709385014517	0.29	NA	NA
519.587	0.94	29	3	pump	5	-2.57575757575758	-0.727272727272727	exponential	cashout	16	blue	0.100451085663051	0.29	NA	NA
521.669	1.259	29	4	pump	5	-1.57575757575758	0.272727272727273	exponential	cashout	16	blue	0.183791736799526	0.29	NA	NA
524.618	0.762	29	5	pump	5	-0.575757575757576	1.27272727272727	exponential	cashout	16	blue	0.293654735772005	0.29	NA	NA
526.818	0.56	29	6	cashout	5	NA	NA	exponential	cashout	16	blue	0.430643231586474	0.29	NA	NA
542.396	0.752	30	1	pump	11	-4.57575757575758	-7.09090909090909	control	control	11	grey	0	0	NA	NA
544.228	0.861	30	2	pump	11	-3.57575757575758	-6.09090909090909	control	control	11	grey	0	0	NA	NA
546.894	0.857	30	3	pump	11	-2.57575757575758	-5.09090909090909	control	control	11	grey	0	0	NA	NA
549.61	0.763	30	4	pump	11	-1.57575757575758	-4.09090909090909	control	control	11	grey	0	0	NA	NA
552.126	0.642	30	5	pump	11	-0.575757575757576	-3.09090909090909	control	control	11	grey	0	0	NA	NA
554.208	0.655	30	6	pump	11	0.424242424242424	-2.09090909090909	control	control	11	grey	0	0	NA	NA
556.374	0.532	30	7	pump	11	1.42424242424242	-1.09090909090909	control	control	11	grey	0	0	NA	NA
558.54	0.692	30	8	pump	11	2.42424242424242	-0.0909090909090917	control	control	11	grey	0	0	NA	NA
560.873	0.737	30	9	pump	11	3.42424242424242	0.909090909090908	control	control	11	grey	0	0	NA	NA
563.122	0.483	30	10	pump	11	4.42424242424242	1.90909090909091	control	control	11	grey	0	0	NA	NA
565.638	0.572	30	11	pump	11	5.42424242424242	2.90909090909091	control	control	11	grey	0	0	NA	NA
570.903	0.94	31	1	pump	6	-4.57575757575758	-7.09090909090909	control	control	6	grey	0	0	NA	NA
573.485	0.599	31	2	pump	6	-3.57575757575758	-6.09090909090909	control	control	6	grey	0	0	NA	NA
575.301	0.793	31	3	pump	6	-2.57575757575758	-5.09090909090909	control	control	6	grey	0	0	NA	NA
577.984	0.608	31	4	pump	6	-1.57575757575758	-4.09090909090909	control	control	6	grey	0	0	NA	NA
580.533	0.71	31	5	pump	6	-0.575757575757576	-3.09090909090909	control	control	6	grey	0	0	NA	NA
583.032	0.51	31	6	pump	6	0.424242424242424	-2.09090909090909	control	control	6	grey	0	0	NA	NA
588.747	0.877	32	1	pump	4	-4.57575757575758	-3.90909090909091	linear	cashout	5	red	0.1	0.4	NA	NA
591.112	0.627	32	2	pump	4	-3.57575757575758	-2.90909090909091	linear	cashout	5	red	0.2	0.4	NA	NA
593.312	0.994	32	3	pump	4	-2.57575757575758	-1.90909090909091	linear	cashout	5	red	0.3	0.4	NA	NA
596.144	0.857	32	4	pump	4	-1.57575757575758	-0.909090909090909	linear	cashout	5	red	0.4	0.4	NA	NA
598.66	0.565	32	5	cashout	4	NA	NA	linear	cashout	5	red	0.5	0.4	NA	NA
605.591	0.368	33	1	pump	5	-4.57575757575758	-2.72727272727273	exponential	cashout	8	blue	0.01	0.29	NA	NA
607.057	1.102	33	2	pump	5	-3.57575757575758	-1.72727272727273	exponential	cashout	8	blue	0.0428709385014517	0.29	NA	NA
610.039	0.591	33	3	pump	5	-2.57575757575758	-0.727272727272727	exponential	cashout	8	blue	0.100451085663051	0.29	NA	NA
612.539	0.688	33	4	pump	5	-1.57575757575758	0.272727272727273	exponential	cashout	8	blue	0.183791736799526	0.29	NA	NA
614.521	1.056	33	5	pump	5	-0.575757575757576	1.27272727272727	exponential	cashout	8	blue	0.293654735772005	0.29	NA	NA
617.387	0.587	33	6	cashout	5	NA	NA	exponential	cashout	8	blue	0.430643231586474	0.29	NA	NA
