onset	duration	balloon_number	balloon_idx	response	pumps	pumps_demean_all	pumps_demean_type	balloon_type	balloon_outcome	balloon_maxpumps	balloon_colour	balloon_payoff_cumulative	balloon_payoff_total	onset_explosion	duration_explosion
4.065	1.603	1	1	pump	2	-4.54838709677419	-6.54545454545455	control	control	2	grey	0	0	NA	NA
6.849	1.279	1	2	pump	2	-3.54838709677419	-5.54545454545455	control	control	2	grey	0	0	NA	NA
16.204	1.49	2	1	pump	5	-4.54838709677419	-4.6	linear	cashout	16	blue	0.1	0.5	NA	NA
19.549	0.981	2	2	pump	5	-3.54838709677419	-3.6	linear	cashout	16	blue	0.2	0.5	NA	NA
21.815	1.483	2	3	pump	5	-2.54838709677419	-2.6	linear	cashout	16	blue	0.3	0.5	NA	NA
24.799	1.106	2	4	pump	5	-1.54838709677419	-1.6	linear	cashout	16	blue	0.4	0.5	NA	NA
27.732	1.592	2	5	pump	5	-0.548387096774194	-0.6	linear	cashout	16	blue	0.5	0.5	NA	NA
31.299	1.285	2	6	cashout	5	NA	NA	linear	cashout	16	blue	0.6	0.5	NA	NA
40.565	1.011	3	1	pump	4	-4.54838709677419	-2.3	exponential	explosion	4	red	0.01	0	NA	NA
43.245	1.241	3	2	pump	4	-3.54838709677419	-1.3	exponential	explosion	4	red	0.0428709385014517	0	NA	NA
45.899	1.35	3	3	pump	4	-2.54838709677419	-0.3	exponential	explosion	4	red	0.100451085663051	0	NA	NA
48.843	0.858	3	4	pump	4	NA	NA	exponential	explosion	4	red	0.183791736799526	0	50.999	2
55.265	0.97	4	1	pump	6	-4.54838709677419	-2.3	exponential	cashout	13	red	0.01	0.43	NA	NA
57.649	1.166	4	2	pump	6	-3.54838709677419	-1.3	exponential	cashout	13	red	0.0428709385014517	0.43	NA	NA
60.272	1.372	4	3	pump	6	-2.54838709677419	-0.3	exponential	cashout	13	red	0.100451085663051	0.43	NA	NA
63.215	0.858	4	4	pump	6	-1.54838709677419	0.7	exponential	cashout	13	red	0.183791736799526	0.43	NA	NA
65.982	0.882	4	5	pump	6	-0.548387096774194	1.7	exponential	cashout	13	red	0.293654735772005	0.43	NA	NA
68.615	3.242	4	6	pump	6	0.451612903225806	2.7	exponential	cashout	13	red	0.430643231586474	0.43	NA	NA
73.765	0.929	4	7	cashout	6	NA	NA	exponential	cashout	13	red	0.595258881579143	0.43	NA	NA
80.799	1.116	5	1	pump	1	NA	NA	linear	explosion	1	blue	0.1	0	83.299	2
86.732	1.148	6	1	pump	4	-4.54838709677419	-6.54545454545455	control	control	4	grey	0	0	NA	NA
89.549	0.962	6	2	pump	4	-3.54838709677419	-5.54545454545455	control	control	4	grey	0	0	NA	NA
91.932	0.909	6	3	pump	4	-2.54838709677419	-4.54545454545455	control	control	4	grey	0	0	NA	NA
94.732	1.377	6	4	pump	4	-1.54838709677419	-3.54545454545455	control	control	4	grey	0	0	NA	NA
100.215	1.026	7	1	pump	1	NA	NA	exponential	explosion	1	red	0.01	0	102.399	2
108.749	0.968	8	1	pump	6	-4.54838709677419	-4.6	linear	cashout	12	blue	0.1	0.6	NA	NA
111.765	1.303	8	2	pump	6	-3.54838709677419	-3.6	linear	cashout	12	blue	0.2	0.6	NA	NA
114.165	1.183	8	3	pump	6	-2.54838709677419	-2.6	linear	cashout	12	blue	0.3	0.6	NA	NA
116.649	0.921	8	4	pump	6	-1.54838709677419	-1.6	linear	cashout	12	blue	0.4	0.6	NA	NA
119.415	0.983	8	5	pump	6	-0.548387096774194	-0.6	linear	cashout	12	blue	0.5	0.6	NA	NA
121.718	1.547	8	6	pump	6	0.451612903225806	0.4	linear	cashout	12	blue	0.6	0.6	NA	NA
125.1	1.149	8	7	cashout	6	NA	NA	linear	cashout	12	blue	0.7	0.6	NA	NA
131.482	1.17	9	1	pump	13	-4.54838709677419	-6.54545454545455	control	control	13	grey	0	0	NA	NA
134.515	0.821	9	2	pump	13	-3.54838709677419	-5.54545454545455	control	control	13	grey	0	0	NA	NA
137.063	0.882	9	3	pump	13	-2.54838709677419	-4.54545454545455	control	control	13	grey	0	0	NA	NA
139.465	0.987	9	4	pump	13	-1.54838709677419	-3.54545454545455	control	control	13	grey	0	0	NA	NA
142.132	0.803	9	5	pump	13	-0.548387096774194	-2.54545454545455	control	control	13	grey	0	0	NA	NA
144.561	0.736	9	6	pump	13	0.451612903225806	-1.54545454545455	control	control	13	grey	0	0	NA	NA
146.832	1.188	9	7	pump	13	1.45161290322581	-0.545454545454546	control	control	13	grey	0	0	NA	NA
150.065	0.874	9	8	pump	13	2.45161290322581	0.454545454545454	control	control	13	grey	0	0	NA	NA
152.099	0.797	9	9	pump	13	3.45161290322581	1.45454545454545	control	control	13	grey	0	0	NA	NA
154.865	1.429	9	10	pump	13	4.45161290322581	2.45454545454545	control	control	13	grey	0	0	NA	NA
157.449	0.78	9	11	pump	13	5.45161290322581	3.45454545454545	control	control	13	grey	0	0	NA	NA
159.749	0.718	9	12	pump	13	6.45161290322581	4.45454545454545	control	control	13	grey	0	0	NA	NA
161.765	1.104	9	13	pump	13	7.45161290322581	5.45454545454545	control	control	13	grey	0	0	NA	NA
166.765	1.126	10	1	pump	7	-4.54838709677419	-4.6	linear	cashout	16	blue	0.1	0.7	NA	NA
169.432	0.848	10	2	pump	7	-3.54838709677419	-3.6	linear	cashout	16	blue	0.2	0.7	NA	NA
172.015	0.691	10	3	pump	7	-2.54838709677419	-2.6	linear	cashout	16	blue	0.3	0.7	NA	NA
174.101	0.857	10	4	pump	7	-1.54838709677419	-1.6	linear	cashout	16	blue	0.4	0.7	NA	NA
176.533	0.996	10	5	pump	7	-0.548387096774194	-0.6	linear	cashout	16	blue	0.5	0.7	NA	NA
178.832	1.099	10	6	pump	7	0.451612903225806	0.4	linear	cashout	16	blue	0.6	0.7	NA	NA
181.649	1.552	10	7	pump	7	1.45161290322581	1.4	linear	cashout	16	blue	0.7	0.7	NA	NA
184.582	1.317	10	8	cashout	7	NA	NA	linear	cashout	16	blue	0.8	0.7	NA	NA
191.711	0.995	11	1	pump	6	-4.54838709677419	-6.54545454545455	control	control	6	grey	0	0	NA	NA
194.032	0.875	11	2	pump	6	-3.54838709677419	-5.54545454545455	control	control	6	grey	0	0	NA	NA
196.049	0.996	11	3	pump	6	-2.54838709677419	-4.54545454545455	control	control	6	grey	0	0	NA	NA
198.832	0.558	11	4	pump	6	-1.54838709677419	-3.54545454545455	control	control	6	grey	0	0	NA	NA
201.082	0.742	11	5	pump	6	-0.548387096774194	-2.54545454545455	control	control	6	grey	0	0	NA	NA
203.632	0.589	11	6	pump	6	0.451612903225806	-1.54545454545455	control	control	6	grey	0	0	NA	NA
209.749	0.843	12	1	pump	1	NA	NA	exponential	explosion	1	red	0.01	0	212.232	2
224.333	1.73	13	1	pump	1	NA	NA	linear	explosion	1	blue	0.1	0	228.082	2
233.282	1.149	14	1	pump	5	-4.54838709677419	-2.3	exponential	explosion	5	red	0.01	0	NA	NA
235.649	1.025	14	2	pump	5	-3.54838709677419	-1.3	exponential	explosion	5	red	0.0428709385014517	0	NA	NA
237.932	0.951	14	3	pump	5	-2.54838709677419	-0.3	exponential	explosion	5	red	0.100451085663051	0	NA	NA
240.232	1.239	14	4	pump	5	-1.54838709677419	0.7	exponential	explosion	5	red	0.183791736799526	0	NA	NA
242.965	0.967	14	5	pump	5	NA	NA	exponential	explosion	5	red	0.293654735772005	0	245.81	2
249.849	0.965	15	1	pump	10	-4.54838709677419	-6.54545454545455	control	control	10	grey	0	0	NA	NA
252.482	0.708	15	2	pump	10	-3.54838709677419	-5.54545454545455	control	control	10	grey	0	0	NA	NA
255.132	0.476	15	3	pump	10	-2.54838709677419	-4.54545454545455	control	control	10	grey	0	0	NA	NA
257.415	1.131	15	4	pump	10	-1.54838709677419	-3.54545454545455	control	control	10	grey	0	0	NA	NA
260.282	0.759	15	5	pump	10	-0.548387096774194	-2.54545454545455	control	control	10	grey	0	0	NA	NA
262.415	2.804	15	6	pump	10	0.451612903225806	-1.54545454545455	control	control	10	grey	0	0	NA	NA
266.865	1.59	15	7	pump	10	1.45161290322581	-0.545454545454546	control	control	10	grey	0	0	NA	NA
270.032	1.314	15	8	pump	10	2.45161290322581	0.454545454545454	control	control	10	grey	0	0	NA	NA
272.934	1.053	15	9	pump	10	3.45161290322581	1.45454545454545	control	control	10	grey	0	0	NA	NA
275.25	1.221	15	10	pump	10	4.45161290322581	2.45454545454545	control	control	10	grey	0	0	NA	NA
281.432	1.138	16	1	pump	16	-4.54838709677419	-6.54545454545455	control	control	16	grey	0	0	NA	NA
283.699	3.246	16	2	pump	16	-3.54838709677419	-5.54545454545455	control	control	16	grey	0	0	NA	NA
288.815	1.038	16	3	pump	16	-2.54838709677419	-4.54545454545455	control	control	16	grey	0	0	NA	NA
291.449	2.52	16	4	pump	16	-1.54838709677419	-3.54545454545455	control	control	16	grey	0	0	NA	NA
295.182	1.035	16	5	pump	16	-0.548387096774194	-2.54545454545455	control	control	16	grey	0	0	NA	NA
297.615	1.007	16	6	pump	16	0.451612903225806	-1.54545454545455	control	control	16	grey	0	0	NA	NA
299.782	1.518	16	7	pump	16	1.45161290322581	-0.545454545454546	control	control	16	grey	0	0	NA	NA
303.115	0.753	16	8	pump	16	2.45161290322581	0.454545454545454	control	control	16	grey	0	0	NA	NA
305.132	1.544	16	9	pump	16	3.45161290322581	1.45454545454545	control	control	16	grey	0	0	NA	NA
308.349	0.795	16	10	pump	16	4.45161290322581	2.45454545454545	control	control	16	grey	0	0	NA	NA
311.099	1.14	16	11	pump	16	5.45161290322581	3.45454545454545	control	control	16	grey	0	0	NA	NA
313.732	1.174	16	12	pump	16	6.45161290322581	4.45454545454545	control	control	16	grey	0	0	NA	NA
316.265	1.404	16	13	pump	16	7.45161290322581	5.45454545454545	control	control	16	grey	0	0	NA	NA
319.099	0.407	16	14	pump	16	8.45161290322581	6.45454545454545	control	control	16	grey	0	0	NA	NA
321.451	0.883	16	15	pump	16	9.45161290322581	7.45454545454545	control	control	16	grey	0	0	NA	NA
323.932	1.148	16	16	pump	16	10.4516129032258	8.45454545454545	control	control	16	grey	0	0	NA	NA
330.565	0.672	17	1	pump	8	-4.54838709677419	-4.6	linear	cashout	15	blue	0.1	0.8	NA	NA
332.732	0.836	17	2	pump	8	-3.54838709677419	-3.6	linear	cashout	15	blue	0.2	0.8	NA	NA
334.882	0.963	17	3	pump	8	-2.54838709677419	-2.6	linear	cashout	15	blue	0.3	0.8	NA	NA
337.345	0.955	17	4	pump	8	-1.54838709677419	-1.6	linear	cashout	15	blue	0.4	0.8	NA	NA
339.665	0.814	17	5	pump	8	-0.548387096774194	-0.6	linear	cashout	15	blue	0.5	0.8	NA	NA
342.482	0.754	17	6	pump	8	0.451612903225806	0.4	linear	cashout	15	blue	0.6	0.8	NA	NA
344.315	1.065	17	7	pump	8	1.45161290322581	1.4	linear	cashout	15	blue	0.7	0.8	NA	NA
346.509	1.692	17	8	pump	8	2.45161290322581	2.4	linear	cashout	15	blue	0.8	0.8	NA	NA
349.465	0.804	17	9	cashout	8	NA	NA	linear	cashout	15	blue	0.9	0.8	NA	NA
360.065	0.662	18	1	pump	1	NA	NA	exponential	explosion	1	red	0.01	0	362.149	2
368.282	0.686	19	1	pump	2	-4.54838709677419	-6.54545454545455	control	control	2	grey	0	0	NA	NA
370.6	0.492	19	2	pump	2	-3.54838709677419	-5.54545454545455	control	control	2	grey	0	0	NA	NA
375.066	0.72	20	1	pump	7	-4.54838709677419	-4.6	linear	cashout	12	blue	0.1	0.7	NA	NA
377.032	0.892	20	2	pump	7	-3.54838709677419	-3.6	linear	cashout	12	blue	0.2	0.7	NA	NA
379.564	0.813	20	3	pump	7	-2.54838709677419	-2.6	linear	cashout	12	blue	0.3	0.7	NA	NA
381.865	0.925	20	4	pump	7	-1.54838709677419	-1.6	linear	cashout	12	blue	0.4	0.7	NA	NA
384.779	0.733	20	5	pump	7	-0.548387096774194	-0.6	linear	cashout	12	blue	0.5	0.7	NA	NA
387.415	1.68	20	6	pump	7	0.451612903225806	0.4	linear	cashout	12	blue	0.6	0.7	NA	NA
391.032	1.927	20	7	pump	7	1.45161290322581	1.4	linear	cashout	12	blue	0.7	0.7	NA	NA
394.265	0.834	20	8	cashout	7	NA	NA	linear	cashout	12	blue	0.8	0.7	NA	NA
401.615	1.37	21	1	pump	1	NA	NA	exponential	explosion	1	red	0.01	0	404.865	2
410.415	0.967	22	1	pump	7	-4.54838709677419	-4.6	linear	cashout	9	blue	0.1	0.7	NA	NA
413.349	1.022	22	2	pump	7	-3.54838709677419	-3.6	linear	cashout	9	blue	0.2	0.7	NA	NA
415.499	1.079	22	3	pump	7	-2.54838709677419	-2.6	linear	cashout	9	blue	0.3	0.7	NA	NA
418.315	1.074	22	4	pump	7	-1.54838709677419	-1.6	linear	cashout	9	blue	0.4	0.7	NA	NA
421.45	1.196	22	5	pump	7	-0.548387096774194	-0.6	linear	cashout	9	blue	0.5	0.7	NA	NA
423.866	1.719	22	6	pump	7	0.451612903225806	0.4	linear	cashout	9	blue	0.6	0.7	NA	NA
427.199	1.42	22	7	pump	7	1.45161290322581	1.4	linear	cashout	9	blue	0.7	0.7	NA	NA
430.465	1.03	22	8	cashout	7	NA	NA	linear	cashout	9	blue	0.8	0.7	NA	NA
437.082	0.916	23	1	pump	5	-4.54838709677419	-6.54545454545455	control	control	5	grey	0	0	NA	NA
440.015	0.859	23	2	pump	5	-3.54838709677419	-5.54545454545455	control	control	5	grey	0	0	NA	NA
442.215	0.7	23	3	pump	5	-2.54838709677419	-4.54545454545455	control	control	5	grey	0	0	NA	NA
444.499	0.783	23	4	pump	5	-1.54838709677419	-3.54545454545455	control	control	5	grey	0	0	NA	NA
446.649	0.815	23	5	pump	5	-0.548387096774194	-2.54545454545455	control	control	5	grey	0	0	NA	NA
451.799	1.185	24	1	pump	5	-4.54838709677419	-2.3	exponential	cashout	16	red	0.01	0.29	NA	NA
454.882	0.993	24	2	pump	5	-3.54838709677419	-1.3	exponential	cashout	16	red	0.0428709385014517	0.29	NA	NA
457.482	1.068	24	3	pump	5	-2.54838709677419	-0.3	exponential	cashout	16	red	0.100451085663051	0.29	NA	NA
459.849	0.852	24	4	pump	5	-1.54838709677419	0.7	exponential	cashout	16	red	0.183791736799526	0.29	NA	NA
462.682	0.824	24	5	pump	5	-0.548387096774194	1.7	exponential	cashout	16	red	0.293654735772005	0.29	NA	NA
465.215	1.249	24	6	cashout	5	NA	NA	exponential	cashout	16	red	0.430643231586474	0.29	NA	NA
474.965	0.943	25	1	pump	5	-4.54838709677419	-4.6	linear	explosion	5	blue	0.1	0	NA	NA
477.315	1.425	25	2	pump	5	-3.54838709677419	-3.6	linear	explosion	5	blue	0.2	0	NA	NA
480.232	1.408	25	3	pump	5	-2.54838709677419	-2.6	linear	explosion	5	blue	0.3	0	NA	NA
483.515	0.811	25	4	pump	5	-1.54838709677419	-1.6	linear	explosion	5	blue	0.4	0	NA	NA
485.828	1.222	25	5	pump	5	NA	NA	linear	explosion	5	blue	0.5	0	488.815	2
493.349	0.675	26	1	pump	6	-4.54838709677419	-2.3	exponential	cashout	10	red	0.01	0.43	NA	NA
495.832	0.763	26	2	pump	6	-3.54838709677419	-1.3	exponential	cashout	10	red	0.0428709385014517	0.43	NA	NA
497.865	0.919	26	3	pump	6	-2.54838709677419	-0.3	exponential	cashout	10	red	0.100451085663051	0.43	NA	NA
500.232	0.727	26	4	pump	6	-1.54838709677419	0.7	exponential	cashout	10	red	0.183791736799526	0.43	NA	NA
502.199	0.812	26	5	pump	6	-0.548387096774194	1.7	exponential	cashout	10	red	0.293654735772005	0.43	NA	NA
504.499	1.018	26	6	pump	6	0.451612903225806	2.7	exponential	cashout	10	red	0.430643231586474	0.43	NA	NA
507.432	1.052	26	7	cashout	6	NA	NA	exponential	cashout	10	red	0.595258881579143	0.43	NA	NA
514.699	0.779	27	1	pump	13	-4.54838709677419	-6.54545454545455	control	control	13	grey	0	0	NA	NA
516.699	0.701	27	2	pump	13	-3.54838709677419	-5.54545454545455	control	control	13	grey	0	0	NA	NA
519.367	0.763	27	3	pump	13	-2.54838709677419	-4.54545454545455	control	control	13	grey	0	0	NA	NA
521.233	0.857	27	4	pump	13	-1.54838709677419	-3.54545454545455	control	control	13	grey	0	0	NA	NA
524.032	0.558	27	5	pump	13	-0.548387096774194	-2.54545454545455	control	control	13	grey	0	0	NA	NA
526.515	0.48	27	6	pump	13	0.451612903225806	-1.54545454545455	control	control	13	grey	0	0	NA	NA
529.049	0.68	27	7	pump	13	1.45161290322581	-0.545454545454546	control	control	13	grey	0	0	NA	NA
531.182	1.159	27	8	pump	13	2.45161290322581	0.454545454545454	control	control	13	grey	0	0	NA	NA
533.682	1.053	27	9	pump	13	3.45161290322581	1.45454545454545	control	control	13	grey	0	0	NA	NA
536.032	0.707	27	10	pump	13	4.45161290322581	2.45454545454545	control	control	13	grey	0	0	NA	NA
537.932	1.003	27	11	pump	13	5.45161290322581	3.45454545454545	control	control	13	grey	0	0	NA	NA
540.149	0.771	27	12	pump	13	6.45161290322581	4.45454545454545	control	control	13	grey	0	0	NA	NA
542.732	0.555	27	13	pump	13	7.45161290322581	5.45454545454545	control	control	13	grey	0	0	NA	NA
547.815	0.834	28	1	pump	9	-4.54838709677419	-4.6	linear	cashout	16	blue	0.1	0.9	NA	NA
550.299	0.593	28	2	pump	9	-3.54838709677419	-3.6	linear	cashout	16	blue	0.2	0.9	NA	NA
552.399	0.945	28	3	pump	9	-2.54838709677419	-2.6	linear	cashout	16	blue	0.3	0.9	NA	NA
555.115	0.793	28	4	pump	9	-1.54838709677419	-1.6	linear	cashout	16	blue	0.4	0.9	NA	NA
557.532	0.408	28	5	pump	9	-0.548387096774194	-0.6	linear	cashout	16	blue	0.5	0.9	NA	NA
559.415	0.932	28	6	pump	9	0.451612903225806	0.4	linear	cashout	16	blue	0.6	0.9	NA	NA
562.382	0.744	28	7	pump	9	1.45161290322581	1.4	linear	cashout	16	blue	0.7	0.9	NA	NA
564.915	0.866	28	8	pump	9	2.45161290322581	2.4	linear	cashout	16	blue	0.8	0.9	NA	NA
567.85	1.286	28	9	pump	9	3.45161290322581	3.4	linear	cashout	16	blue	0.9	0.9	NA	NA
570.199	0.811	28	10	cashout	9	NA	NA	linear	cashout	16	blue	1	0.9	NA	NA
578.882	0.806	29	1	pump	2	-4.54838709677419	-6.54545454545455	control	control	2	grey	0	0	NA	NA
581.449	0.792	29	2	pump	2	-3.54838709677419	-5.54545454545455	control	control	2	grey	0	0	NA	NA
588.349	1.192	30	1	pump	3	-4.54838709677419	-2.3	exponential	explosion	3	red	0.01	0	NA	NA
591.315	0.663	30	2	pump	3	-3.54838709677419	-1.3	exponential	explosion	3	red	0.0428709385014517	0	NA	NA
593.115	0.716	30	3	pump	3	NA	NA	exponential	explosion	3	red	0.100451085663051	0	595.232	2
601.882	0.863	31	1	pump	10	-4.54838709677419	-6.54545454545455	control	control	10	grey	0	0	NA	NA
604.688	0.665	31	2	pump	10	-3.54838709677419	-5.54545454545455	control	control	10	grey	0	0	NA	NA
606.549	0.883	31	3	pump	10	-2.54838709677419	-4.54545454545455	control	control	10	grey	0	0	NA	NA
608.982	0.406	31	4	pump	10	-1.54838709677419	-3.54545454545455	control	control	10	grey	0	0	NA	NA
610.815	1.296	31	5	pump	10	-0.548387096774194	-2.54545454545455	control	control	10	grey	0	0	NA	NA
613.749	1.12	31	6	pump	10	0.451612903225806	-1.54545454545455	control	control	10	grey	0	0	NA	NA
616.484	0.811	31	7	pump	10	1.45161290322581	-0.545454545454546	control	control	10	grey	0	0	NA	NA
618.583	0.923	31	8	pump	10	2.45161290322581	0.454545454545454	control	control	10	grey	0	0	NA	NA
620.616	0.827	31	9	pump	10	3.45161290322581	1.45454545454545	control	control	10	grey	0	0	NA	NA
623.099	1.384	31	10	pump	10	4.45161290322581	2.45454545454545	control	control	10	grey	0	0	NA	NA
