onset	duration	trial	trial_id	choice	choice_bin	magnitude_sooner	delay_sooner	magnitude_later	delay_later	onset_choice_fb	duration_choice_fb
14.544	3.096	1	52	LL	2	30.66	2	33.73	6	17.661	1.5
22.111	1.638	2	17	SS	1	22.32	0	22.55	4	23.778	1.5
28.661	1.942	3	1	LL	2	37.69	0	38.07	2	30.628	1.5
41.461	2.22	4	73	SS	1	9.59	4	9.68	6	43.694	1.5
46.528	3.255	5	26	LL	2	38.48	0	39.63	4	49.811	1.5
55.811	2.089	6	63	LL	2	25.61	2	34.57	6	57.928	1.5
62.594	1.918	7	22	LL	2	18.4	0	23	4	64.544	1.5
67.211	2.173	8	36	LL	2	18.11	2	19.92	4	69.411	1.5
77.311	2.064	9	46	LL	2	30.77	2	38.46	4	79.411	1.5
88.195	2.235	10	75	LL	2	20.18	4	21.19	6	90.444	1.5
94.211	2.107	11	45	LL	2	36.8	2	42.32	4	96.344	1.5
99.761	1.974	12	7	LL	2	19.45	0	26.26	2	101.761	1.5
110.994	2.412	13	56	LL	2	26.96	2	40.44	6	113.428	1.5
117.344	2.499	14	27	LL	2	22.78	0	23.92	4	119.878	1.5
123.678	2.277	15	59	SS	1	11.17	2	11.73	6	125.982	1.5
132.144	3.273	16	60	LL	2	6.45	2	7.1	6	135.444	1.5
138.161	2.611	17	51	LL	2	37.85	2	39.74	6	140.794	1.5
148.644	1.802	18	72	LL	2	29.27	4	43.91	6	150.461	1.5
153.844	2.106	19	40	LL	2	12.44	2	18.66	4	155.978	1.5
158.528	2.165	20	3	LL	2	10.51	0	11.04	2	160.72	1.5
164.628	1.952	21	78	LL	2	18.61	4	23.27	6	166.611	1.5
169.261	2.025	22	25	SS	1	9.89	0	9.99	4	171.311	1.5
175.811	2.134	23	61	LL	2	18.24	2	20.97	6	177.978	1.5
184.379	2.067	24	70	LL	2	25.9	4	32.37	6	186.462	1.5
191.061	1.948	25	71	LL	2	10.98	4	14.83	6	193.028	1.5
200.811	2.314	26	66	LL	2	11.96	4	12.32	6	203.144	1.5
207.211	2.19	27	65	SS	1	13.22	4	13.35	6	209.428	1.5
214.028	3.488	28	19	LL	2	28.48	0	29.91	4	217.544	1.5
223.111	1.74	29	6	LL	2	10.5	0	13.13	2	224.878	1.5
228.864	2.149	30	30	LL	2	25.92	0	32.4	4	231.044	1.5
237.561	2.644	31	49	LL	2	23.7	2	23.94	6	240.228	1.5
248.624	1.885	32	4	LL	2	13.42	0	14.77	2	250.528	1.5
253.828	1.911	33	35	LL	2	20.14	2	21.15	4	255.761	1.50000000000003
259.078	1.878	34	11	LL	2	24.85	0	26.09	2	260.978	1.5
264.778	2.06	35	48	LL	2	22.77	2	34.16	4	266.861	1.5
270.017	1.971	36	79	LL	2	14.58	4	19.68	6	272.011	1.5
277.144	1.489	37	14	LL	2	27.84	0	34.8	2	278.661	1.5
281.813	1.687	38	21	LL	2	19.12	0	21.99	4	283.528	1.5
288.294	2.338	39	18	SS	1	5.78	0	5.95	4	290.644	1.5
297.994	1.561	40	24	LL	2	11.37	0	17.06	4	299.578	1.5
311.261	1.947	41	20	LL	2	30.4	0	33.44	4	313.235	1.5
323.861	2	42	8	LL	2	14.49	0	21.74	2	325.894	1.5
329.063	1.605	43	12	LL	2	21.96	0	24.16	2	330.694	1.5
338.244	1.84	44	32	LL	2	11.53	0	17.29	4	340.111	1.5
342.728	1.953	45	57	SS	1	28.25	2	28.53	6	344.708	1.5
354.344	2.819	46	41	LL	2	11.65	2	11.77	4	357.194	1.5
363.011	2.17	47	9	SS	1	22.32	0	22.54	2	365.211	1.5
368.411	1.453	48	13	LL	2	16.21	0	18.64	2	369.894	1.5
379.461	1.714	49	69	LL	2	22.62	4	26.01	6	381.196	1.5
384.778	3.203	50	2	LL	2	24.28	0	25	2	387.994	1.5
393.061	1.395	51	31	LL	2	23.44	0	31.64	4	394.478	1.5
402.278	1.349	52	15	LL	2	16.47	0	22.24	2	403.655	1.5
413.118	1.782	53	80	LL	2	9.39	4	14.08	6	414.928	1.5
421.711	2.745	54	74	SS	1	13.42	4	13.82	6	424.494	1.5
430.296	2.601	55	77	LL	2	25.13	4	28.9	6	432.911	1.5
435.794	1.885	56	37	LL	2	17.36	2	19.96	4	437.694	1.5
446.511	2.981	57	33	SS	1	25.56	2	25.82	4	449.511	1.5
454.528	1.811	58	68	LL	2	25.55	4	28.11	6	456.361	1.5
460.011	2.386	59	44	LL	2	22.39	2	24.62	4	462.428	1.5
465.828	1.947	60	16	LL	2	19.29	0	28.94	2	467.811	1.5
470.882	3.108	61	42	SS	1	9.5	2	9.79	4	474.028	1.5
477.08	3.155	62	28	SS	1	6.41	0	7.05	4	480.262	1.5
485.211	2.372	63	10	LL	2	21.66	0	22.31	2	487.611	1.5
491.858	2.194	64	23	LL	2	6.11	0	8.25	4	494.078	1.5
500.944	1.838	65	43	LL	2	24.99	2	26.24	4	502.811	1.5
507.444	2.025	66	76	LL	2	22.92	4	25.21	6	509.494	1.5
514.911	4.057	67	58	LL	2	12.69	2	13.07	6	518.994	1.5
523.294	1.92	68	64	LL	2	26.95	2	40.42	6	525.244	1.5
529.495	2.117	69	55	LL	2	29.45	2	39.75	6	531.628	1.5
534.578	1.815	70	54	LL	2	14.88	2	18.61	6	536.411	1.5
543.028	1.703	71	38	LL	2	32.44	2	40.55	4	544.761	1.5
549.228	2.111	72	53	LL	2	35.19	2	40.46	6	551.361	1.5
554.644	2.23	73	67	SS	1	6.26	4	6.57	6	556.894	1.5
567.611	1.78	74	39	LL	2	14.56	2	19.66	4	569.428	1.5
572.194	2.215	75	62	LL	2	25.3	2	31.63	6	574.444	1.5
579.878	2.92	76	50	SS	1	20.53	2	21.14	6	582.811	1.5
586.944	1.298	77	29	LL	2	32.7	0	37.6	4	588.261	1.5
592.828	1.478	78	47	LL	2	20.07	2	27.1	4	594.328	1.5
597.111	1.721	79	34	SS	1	7.42	2	7.64	4	598.861	1.5
601.711	1.808	80	5	LL	2	32.79	0	37.71	2	603.544	1.5
