onset	duration	trial	trial_id	choice	choice_bin	magnitude_sooner	delay_sooner	magnitude_later	delay_later	onset_choice_fb	duration_choice_fb
12.703	1.248	1	71	LL	2	10.98	4	14.83	6	13.978	1.5
20.603	1.196	2	6	LL	2	10.5	0	13.13	2	21.836	1.5
32.386	1.258	3	55	LL	2	29.45	2	39.75	6	33.672	1.5
39.203	1.341	4	46	LL	2	30.77	2	38.46	4	40.57	1.5
43.186	1.253	5	32	LL	2	11.53	0	17.29	4	44.453	1.5
52.12	1.222	6	37	LL	2	17.36	2	19.96	4	53.37	1.5
60.703	1.225	7	7	LL	2	19.45	0	26.26	2	61.953	1.5
68.503	1.261	8	44	LL	2	22.39	2	24.62	4	69.786	1.5
74.42	1.397	9	19	LL	2	28.48	0	29.91	4	75.853	1.5
80.136	1.882	10	58	LL	2	12.69	2	13.07	6	82.053	1.5
86.186	2.204	11	50	SS	1	20.53	2	21.14	6	88.403	1.5
93.003	1.83	12	28	SS	1	6.41	0	7.05	4	94.853	1.5
100.32	1.767	13	18	SS	1	5.78	0	5.95	4	102.103	1.5
113.17	1.229	14	48	LL	2	22.77	2	34.16	4	114.42	1.5
118.653	1.676	15	1	SS	1	37.69	0	38.07	2	120.353	1.5
129.77	1.369	16	62	LL	2	25.3	2	31.63	6	131.17	1.5
135.554	1.273	17	31	LL	2	23.44	0	31.64	4	136.854	1.5
140.603	1.637	18	3	SS	1	10.51	0	11.04	2	142.268	1.5
150.07	1.607	19	69	LL	2	22.62	4	26.01	6	151.703	1.5
164.17	1.855	20	2	LL	2	24.28	0	25	2	166.053	1.5
172.52	1.928	21	34	SS	1	7.42	2	7.64	4	174.487	1.5
179.003	2.017	22	49	SS	1	23.7	2	23.94	6	181.039	1.5
193.137	1.747	23	52	LL	2	30.66	2	33.73	6	194.903	1.5
202.203	1.609	24	5	LL	2	32.79	0	37.71	2	203.837	1.5
207.853	2.017	25	60	SS	1	6.45	2	7.1	6	209.903	1.5
216.42	1.3	26	61	LL	2	18.24	2	20.97	6	217.753	1.5
224.22	1.524	27	70	LL	2	25.9	4	32.37	6	225.77	1.5
237.753	1.527	28	40	LL	2	12.44	2	18.66	4	239.303	1.5
243.837	2.065	29	53	LL	2	35.19	2	40.46	6	245.92	1.5
253.37	1.859	30	4	SS	1	13.42	0	14.77	2	255.253	1.5
259.837	1.4	31	47	LL	2	20.07	2	27.1	4	261.27	1.5
265.637	1.3	32	26	LL	2	38.48	0	39.63	4	266.97	1.5
269.853	1.982	33	78	LL	2	18.61	4	23.27	6	271.87	1.5
276.32	1.814	34	41	SS	1	11.65	2	11.77	4	278.17	1.5
283.571	1.538	35	39	LL	2	14.56	2	19.66	4	285.137	1.5
290.287	1.842	36	35	LL	2	20.14	2	21.15	4	292.154	1.5
296.404	1.452	37	45	LL	2	36.8	2	42.32	4	297.887	1.5
302.987	1.141	38	68	LL	2	25.55	4	28.11	6	304.154	1.5
308.987	1.134	39	51	LL	2	37.85	2	39.74	6	310.154	1.5
313.704	2.219	40	33	SS	1	25.56	2	25.82	4	315.954	1.5
320.82	1.607	41	30	LL	2	25.92	0	32.4	4	322.454	1.5
328.422	1.895	42	42	SS	1	9.5	2	9.79	4	330.338	1.5
333.037	2.179	43	25	SS	1	9.89	0	9.99	4	335.237	1.5
339.737	2.13	44	75	LL	2	20.18	4	21.19	6	341.887	1.5
347.37	2.165	45	74	SS	1	13.42	4	13.82	6	349.554	1.5
354.27	1.765	46	9	SS	1	22.32	0	22.54	2	356.054	1.5
359.479	2.021	47	29	LL	2	32.7	0	37.6	4	361.528	1.5
364.904	1.475	48	21	LL	2	19.12	0	21.99	4	366.404	1.5
372.704	1.283	49	11	LL	2	24.85	0	26.09	2	374.02	1.5
378.639	1.526	50	57	SS	1	28.25	2	28.53	6	380.188	1.5
387.387	1.449	51	14	LL	2	27.84	0	34.8	2	388.854	1.5
391.42	1.606	52	38	LL	2	32.44	2	40.55	4	393.054	1.5
403.42	2.09	53	22	LL	2	18.4	0	23	4	405.537	1.5
412.277	1.723	54	17	SS	1	22.32	0	22.55	4	414.037	1.5
418.954	1.373	55	43	LL	2	24.99	2	26.24	4	420.354	1.5
424.487	1.401	56	54	LL	2	14.88	2	18.61	6	425.92	1.5
429.505	1.65	57	20	LL	2	30.4	0	33.44	4	431.171	1.5
435.487	1.837	58	65	SS	1	13.22	4	13.35	6	437.352	1.5
442.904	1.193	59	13	LL	2	16.21	0	18.64	2	444.12	1.5
455.629	2.627	60	27	SS	1	22.78	0	23.92	4	458.287	1.5
462.277	2.279	61	66	LL	2	11.96	4	12.32	6	464.587	1.5
467.704	2.68	62	80	LL	2	9.39	4	14.08	6	470.42	1.5
477.871	1.901	63	15	LL	2	16.47	0	22.24	2	479.788	1.5
485.154	1.423	64	56	LL	2	26.96	2	40.44	6	486.604	1.5
489.754	1.751	65	12	LL	2	21.96	0	24.16	2	491.521	1.5
497.087	1.801	66	24	LL	2	11.37	0	17.06	4	498.921	1.5
504.671	2.236	67	73	SS	1	9.59	4	9.68	6	506.937	1.5
510.837	1.226	68	72	LL	2	29.27	4	43.91	6	512.087	1.5
522.904	1.486	69	64	LL	2	26.95	2	40.42	6	524.421	1.5
531.187	2.076	70	67	SS	1	6.26	4	6.57	6	533.287	1.5
537.604	2.3	71	10	LL	2	21.66	0	22.31	2	539.921	1.5
545.287	1.614	72	76	LL	2	22.92	4	25.21	6	546.921	1.5
552.797	0.926	73	16	LL	2	19.29	0	28.94	2	553.754	1.5
557.671	0.963	74	8	LL	2	14.49	0	21.74	2	558.661	1.5
569.071	1.12	75	63	LL	2	25.61	2	34.57	6	570.221	1.5
573.587	2.053	76	79	LL	2	14.58	4	19.68	6	575.656	1.5
578.255	2.41	77	59	SS	1	11.17	2	11.73	6	580.687	1.5
584.854	1.54	78	23	LL	2	6.11	0	8.25	4	586.421	1.5
590.437	1.481	79	36	LL	2	18.11	2	19.92	4	591.937	1.5
595.971	2.205	80	77	LL	2	25.13	4	28.9	6	598.204	1.5
