onset	duration	trial	trial_id	choice	choice_bin	magnitude_sooner	delay_sooner	magnitude_later	delay_later	onset_choice_fb	duration_choice_fb
13.289	2.333	1	53	SS	1	35.19	2	40.46	6	15.656	1.5
25.556	2.183	2	66	SS	1	11.96	4	12.32	6	27.772	1.5
32.339	2.63	3	37	SS	1	17.36	2	19.96	4	34.99	1.5
45.506	2.259	4	4	SS	1	13.42	0	14.77	2	47.789	1.5
54.656	1.691	5	28	SS	1	6.41	0	7.05	4	56.372	1.5
63.889	2.414	6	75	SS	1	20.18	4	21.19	6	66.339	1.5
70.972	2.309	7	35	SS	1	20.14	2	21.15	4	73.306	1.5
77.939	1.945	8	44	SS	1	22.39	2	24.62	4	79.922	1.5
87.323	1.985	9	34	SS	1	7.42	2	7.64	4	89.322	1.5
100.506	2.376	10	51	SS	1	37.85	2	39.74	6	102.906	1.5
105.9	2.179	11	69	SS	1	22.62	4	26.01	6	108.106	1.5
112.339	1.463	12	64	LL	2	26.95	2	40.42	6	113.831	1.5
121.556	1.91	13	43	SS	1	24.99	2	26.24	4	123.494	1.5
128.139	1.874	14	76	SS	1	22.92	4	25.21	6	130.039	1.5
135.44	2.08	15	73	SS	1	9.59	4	9.68	6	137.539	1.5
142.973	1.819	16	68	SS	1	25.55	4	28.11	6	144.82	1.5
153.106	1.884	17	18	SS	1	5.78	0	5.95	4	155.023	1.5
163.389	1.639	18	19	SS	1	28.48	0	29.91	4	165.056	1.5
169.573	1.427	19	31	LL	2	23.44	0	31.64	4	171.028	1.5
178.839	1.544	20	7	LL	2	19.45	0	26.26	2	180.423	1.5
184.407	1.859	21	39	LL	2	14.56	2	19.66	4	186.289	1.5
192.506	1.458	22	57	SS	1	28.25	2	28.53	6	193.989	1.5
201.439	2.004	23	36	SS	1	18.11	2	19.92	4	203.473	1.5
207.523	1.719	24	33	SS	1	25.56	2	25.82	4	209.273	1.5
213.556	1.996	25	50	SS	1	20.53	2	21.14	6	215.58	1.5
226.506	1.949	26	42	SS	1	9.5	2	9.79	4	228.489	1.5
233.19	1.417	27	14	LL	2	27.84	0	34.8	2	234.623	1.5
241.173	1.487	28	59	SS	1	11.17	2	11.73	6	242.69	1.5
245.32	2.081	29	58	SS	1	12.69	2	13.07	6	247.423	1.5
252.973	1.344	30	65	SS	1	13.22	4	13.35	6	254.34	1.5
266.056	1.292	31	46	LL	2	30.77	2	38.46	4	267.373	1.5
271.973	1.589	32	29	LL	2	32.7	0	37.6	4	273.59	1.5
278.24	2.104	33	12	SS	1	21.96	0	24.16	2	280.358	1.5
291.04	2.018	34	13	SS	1	16.21	0	18.64	2	293.073	1.5
297.59	1.283	35	55	LL	2	29.45	2	39.75	6	298.89	1.5
309.906	2.169	36	2	SS	1	24.28	0	25	2	312.106	1.5
317.573	1.479	37	25	SS	1	9.89	0	9.99	4	319.09	1.5
323.14	3.538	38	77	LL	2	25.13	4	28.9	6	326.706	1.5
336.506	1.67	39	47	LL	2	20.07	2	27.1	4	338.19	1.5
340.873	1.499	40	15	LL	2	16.47	0	22.24	2	342.39	1.5
352.74	1.453	41	32	LL	2	11.53	0	17.29	4	354.223	1.5
361.464	1.648	42	10	SS	1	21.66	0	22.31	2	363.14	1.5
369.423	1.264	43	24	LL	2	11.37	0	17.06	4	370.723	1.5
374.673	1.205	44	63	LL	2	25.61	2	34.57	6	375.907	1.5
383.523	1.423	45	17	SS	1	22.32	0	22.55	4	384.973	1.5
389.257	1.397	46	48	LL	2	22.77	2	34.16	4	390.673	1.5
397.057	1.218	47	41	SS	1	11.65	2	11.77	4	398.307	1.5
402.19	1.715	48	6	LL	2	10.5	0	13.13	2	403.923	1.5
410.057	0.969	49	5	LL	2	32.79	0	37.71	2	411.057	1.5
416.34	1.146	50	16	LL	2	19.29	0	28.94	2	417.523	1.5
422.907	1.278	51	9	SS	1	22.32	0	22.54	2	424.223	1.5
426.825	2.102	52	26	LL	2	38.48	0	39.63	4	428.941	1.5
434.339	1.128	53	72	LL	2	29.27	4	43.91	6	435.49	1.5
440.44	2.057	54	79	LL	2	14.58	4	19.68	6	442.523	1.5
452.123	2.956	55	20	LL	2	30.4	0	33.44	4	455.107	1.5
459.164	2.175	56	22	LL	2	18.4	0	23	4	461.373	1.5
467.873	2.054	57	67	SS	1	6.26	4	6.57	6	469.957	1.5
473.057	1.739	58	38	LL	2	32.44	2	40.55	4	474.823	1.5
477.941	1.803	59	80	LL	2	9.39	4	14.08	6	479.757	1.5
486.89	1.333	60	40	LL	2	12.44	2	18.66	4	488.24	1.5
491.09	2.103	61	54	LL	2	14.88	2	18.61	6	493.224	1.5
495.802	2.892	62	11	SS	1	24.85	0	26.09	2	498.724	1.5
503.774	1.467	63	45	LL	2	36.8	2	42.32	4	505.274	1.5
513.69	1.25	64	62	LL	2	25.3	2	31.63	6	514.974	1.5
525.174	3.002	65	1	SS	1	37.69	0	38.07	2	528.191	1.5
535.457	1.39	66	56	LL	2	26.96	2	40.44	6	536.874	1.5
541.857	1.434	67	3	SS	1	10.51	0	11.04	2	543.319	1.5
549.074	1.983	68	78	LL	2	18.61	4	23.27	6	551.09	1.5
556.54	1.454	69	8	LL	2	14.49	0	21.74	2	558.024	1.5
563.84	1.426	70	74	SS	1	13.42	4	13.82	6	565.29	1.5
576.225	2.424	71	23	LL	2	6.11	0	8.25	4	578.674	1.5
583.374	2.014	72	61	LL	2	18.24	2	20.97	6	585.407	1.5
587.974	3.075	73	21	LL	2	19.12	0	21.99	4	591.074	1.5
595.907	3.113	74	60	SS	1	6.45	2	7.1	6	599.04	1.5
604.324	2.443	75	52	SS	1	30.66	2	33.73	6	606.79	1.5
612.846	1.879	76	70	LL	2	25.9	4	32.37	6	614.757	1.5
624.359	1.436	77	49	SS	1	23.7	2	23.94	6	625.808	1.5
629.524	2.608	78	71	LL	2	10.98	4	14.83	6	632.157	1.5
636.441	2.025	79	27	SS	1	22.78	0	23.92	4	638.491	1.5
644.557	1.978	80	30	LL	2	25.92	0	32.4	4	646.557	1.5
