onset	duration	trial	trial_id	choice	choice_bin	magnitude_sooner	delay_sooner	magnitude_later	delay_later	onset_choice_fb	duration_choice_fb
13.449	1.608	1	4	SS	1	13.42	0	14.77	2	15.082	1.5
17.631	1.879	2	8	LL	2	14.49	0	21.74	2	19.53	1.5
24.462	1.388	3	62	SS	1	25.3	2	31.63	6	25.878	1.5
33.392	1.359	4	41	SS	1	11.65	2	11.77	4	34.775	1.5
44.222	1.568	5	31	SS	1	23.44	0	31.64	4	45.805	1.5
51.819	1.48	6	51	SS	1	37.85	2	39.74	6	53.319	1.5
58.384	1.429	7	9	SS	1	22.32	0	22.54	2	59.833	1.5
64.148	1.246	8	36	SS	1	18.11	2	19.92	4	65.415	1.5
69.163	2.011	9	26	SS	1	38.48	0	39.63	4	71.196	1.5
80.61	2.958	10	79	LL	2	14.58	4	19.68	6	83.592	1.5
92.722	1.685	11	39	SS	1	14.56	2	19.66	4	94.422	1.5
100.22	1.809	12	55	SS	1	29.45	2	39.75	6	102.052	1.5
108.05	1.439	13	5	SS	1	32.79	0	37.71	2	109.516	1.5
113.948	1.614	14	67	SS	1	6.26	4	6.57	6	115.581	1.5
120.929	1.446	15	66	SS	1	11.96	4	12.32	6	122.395	1.5
125.311	1.62	16	76	SS	1	22.92	4	25.21	6	126.944	1.49999999999999
131.259	1.417	17	18	SS	1	5.78	0	5.95	4	132.692	1.5
137.59	0.988	18	68	SS	1	25.55	4	28.11	6	138.607	1.5
145.721	1.769	19	70	LL	2	25.9	4	32.37	6	147.504	1.5
154.268	1.288	20	12	SS	1	21.96	0	24.16	2	155.584	1.5
158.45	1.374	21	14	SS	1	27.84	0	34.8	2	159.849	1.5
165.114	1.183	22	50	SS	1	20.53	2	21.14	6	166.314	1.5
177.244	1.148	23	43	SS	1	24.99	2	26.24	4	178.41	1.5
184.874	2.472	24	32	SS	1	11.53	0	17.29	4	187.373	1.5
195.571	1.073	25	69	SS	1	22.62	4	26.01	6	196.67	1.5
200.419	1.186	26	65	SS	1	13.22	4	13.35	6	201.619	1.5
205.851	1.257	27	75	SS	1	20.18	4	21.19	6	207.133	1.5
215.264	1.414	28	28	SS	1	6.41	0	7.05	4	216.697	1.5
220.379	1.263	29	33	SS	1	25.56	2	25.82	4	221.662	1.5
224.278	1.649	30	63	SS	1	25.61	2	34.57	6	225.944	1.5
231.442	2.191	31	72	LL	2	29.27	4	43.91	6	233.658	1.5
237.423	1.222	32	20	SS	1	30.4	0	33.44	4	238.673	1.5
245.587	1.577	33	38	LL	2	32.44	2	40.55	4	247.187	1.5
249.852	1.136	34	6	SS	1	10.5	0	13.13	2	251.002	1.5
260.882	1.051	35	60	SS	1	6.45	2	7.1	6	261.948	1.5
271.678	1.878	36	71	SS	1	10.98	4	14.83	6	273.578	1.5
277.626	1.314	37	13	SS	1	16.21	0	18.64	2	278.959	1.5
289.822	1.448	38	54	SS	1	14.88	2	18.61	6	291.288	1.5
296.203	1.67	39	22	SS	1	18.4	0	23	4	297.886	1.5
303.784	1.218	40	52	SS	1	30.66	2	33.73	6	305.017	1.5
314.364	1.152	41	35	SS	1	20.14	2	21.15	4	315.53	1.5
325.727	1.15	42	25	SS	1	9.89	0	9.99	4	326.893	1.5
333.174	1.106	43	19	SS	1	28.48	0	29.91	4	334.307	1.5
339.822	1.823	44	56	LL	2	26.96	2	40.44	6	341.671	1.5
349.269	1.013	45	10	SS	1	21.66	0	22.31	2	350.302	1.5
355.833	1.254	46	30	SS	1	25.92	0	32.4	4	357.099	1.5
366.879	1.506	47	47	SS	1	20.07	2	27.1	4	368.412	1.5
372.028	1.128	48	11	SS	1	24.85	0	26.09	2	373.177	1.5
380.341	1.317	49	78	SS	1	18.61	4	23.27	6	381.674	1.5
388.489	1.824	50	48	SS	1	22.77	2	34.16	4	390.338	1.5
394.42	1.805	51	64	SS	1	26.95	2	40.42	6	396.253	1.5
403.734	1.569	52	24	SS	1	11.37	0	17.06	4	405.316	1.5
410.198	1.273	53	42	SS	1	9.5	2	9.79	4	411.498	1.5
414.48	2.173	54	44	SS	1	22.39	2	24.62	4	416.679	1.5
419.845	1.173	55	29	SS	1	32.7	0	37.6	4	421.044	1.5
428.442	2.002	56	46	LL	2	30.77	2	38.46	4	430.458	1.5
439.538	1.058	57	34	SS	1	7.42	2	7.64	4	440.621	1.5
449.601	1.905	58	15	LL	2	16.47	0	22.24	2	451.534	1.5
457.499	2.733	59	53	LL	2	35.19	2	40.46	6	460.248	1.5
469.245	1.325	60	58	SS	1	12.69	2	13.07	6	470.594	1.5
477.259	1.6	61	23	SS	1	6.11	0	8.25	4	478.875	1.5
484.223	1.699	62	37	SS	1	17.36	2	19.96	4	485.939	1.5
491.137	1.181	63	17	SS	1	22.32	0	22.55	4	492.337	1.5
496.752	2.779	64	16	LL	2	19.29	0	28.94	2	499.551	1.5
508.165	1.641	65	61	SS	1	18.24	2	20.97	6	509.831	1.5
515.646	1.164	66	59	SS	1	11.17	2	11.73	6	516.829	1.5
527.408	1.238	67	57	SS	1	28.25	2	28.53	6	528.658	1.5
532.473	2.697	68	45	SS	1	36.8	2	42.32	4	535.189	1.5
538.138	2.202	69	7	LL	2	19.45	0	26.26	2	540.354	1.5
543.536	1.411	70	80	SS	1	9.39	4	14.08	6	544.969	1.5
549.468	1.307	71	2	SS	1	24.28	0	25	2	550.8	1.5
554.799	1.169	72	3	SS	1	10.51	0	11.04	2	555.982	1.5
562.013	1.047	73	21	SS	1	19.12	0	21.99	4	563.08	1.5
568.828	1.225	74	73	SS	1	9.59	4	9.68	6	570.077	1.5
573.376	1.699	75	77	SS	1	25.13	4	28.9	6	575.092	1.5
586.572	1.43	76	49	SS	1	23.7	2	23.94	6	588.021	1.5
592.303	1.257	77	74	SS	1	13.42	4	13.82	6	593.586	1.5
601.017	1.561	78	1	SS	1	37.69	0	38.07	2	602.6	1.5
608.031	1.192	79	27	SS	1	22.78	0	23.92	4	609.247	1.5
615.379	1.084	80	40	SS	1	12.44	2	18.66	4	616.478	1.5
