onset	duration	trial	trial_id	choice	choice_bin	magnitude_sooner	delay_sooner	magnitude_later	delay_later	onset_choice_fb	duration_choice_fb
14.239	2.241	1	71	SS	1	10.98	4	14.83	6	16.505	1.5
20.922	2.548	2	51	SS	1	37.85	2	39.74	6	23.505	1.5
31.806	2.818	3	22	LL	2	18.4	0	23	4	34.639	1.5
44.072	2.924	4	55	LL	2	29.45	2	39.75	6	47.022	1.5
52.305	1.919	5	11	SS	1	24.85	0	26.09	2	54.255	1.5
63.905	2.477	6	32	LL	2	11.53	0	17.29	4	66.405	1.5
69.244	2.102	7	15	LL	2	16.47	0	22.24	2	71.372	1.5
76.105	2.715	8	61	SS	1	18.24	2	20.97	6	78.841	1.5
82.972	3.277	9	23	SS	1	6.11	0	8.25	4	86.272	1.5
96.389	2.546	10	2	SS	1	24.28	0	25	2	98.955	1.5
109.689	2.818	11	78	LL	2	18.61	4	23.27	6	112.539	1.5
119.089	1.82	12	75	SS	1	20.18	4	21.19	6	120.939	1.5
126.939	1.878	13	65	SS	1	13.22	4	13.35	6	128.84	1.5
133.239	3.406	14	38	LL	2	32.44	2	40.55	4	136.672	1.5
143.539	1.676	15	34	SS	1	7.42	2	7.64	4	145.239	1.5
150.222	2.747	16	79	LL	2	14.58	4	19.68	6	152.989	1.5
163.189	3.392	17	27	SS	1	22.78	0	23.92	4	166.605	1.5
172.505	1.869	18	19	SS	1	28.48	0	29.91	4	174.405	1.5
180.206	2.445	19	62	LL	2	25.3	2	31.63	6	182.672	1.5
185.905	1.822	20	21	SS	1	19.12	0	21.99	4	187.754	1.5
191.989	2.705	21	31	LL	2	23.44	0	31.64	4	194.722	1.5
198.839	1.901	22	29	LL	2	32.7	0	37.6	4	200.772	1.5
207.255	2.18	23	24	LL	2	11.37	0	17.06	4	209.455	1.5
214.789	1.5	24	25	SS	1	9.89	0	9.99	4	216.322	1.5
220.772	2.088	25	64	LL	2	26.95	2	40.42	6	222.889	1.5
233.655	1.933	26	10	SS	1	21.66	0	22.31	2	235.605	1.5
240.755	2.069	27	16	LL	2	19.29	0	28.94	2	242.852	1.5
253.489	1.911	28	50	SS	1	20.53	2	21.14	6	255.422	1.50000000000003
261.795	1.964	29	76	LL	2	22.92	4	25.21	6	263.789	1.5
267.789	1.781	30	20	SS	1	30.4	0	33.44	4	269.605	1.5
274.422	3.207	31	52	LL	2	30.66	2	33.73	6	277.657	1.5
280.389	2.853	32	14	LL	2	27.84	0	34.8	2	283.255	1.5
288.572	1.921	33	3	SS	1	10.51	0	11.04	2	290.522	1.5
297.022	2.108	34	8	LL	2	14.49	0	21.74	2	299.155	1.5
303.505	2.947	35	53	LL	2	35.19	2	40.46	6	306.472	1.5
315.81	1.787	36	59	SS	1	11.17	2	11.73	6	317.622	1.5
323.722	3.205	37	68	SS	1	25.55	4	28.11	6	326.94	1.5
330.122	2.547	38	4	SS	1	13.42	0	14.77	2	332.689	1.5
338.522	2.171	39	74	SS	1	13.42	4	13.82	6	340.722	1.5
348.105	2.341	40	35	SS	1	20.14	2	21.15	4	350.472	1.5
353.789	2.953	41	33	SS	1	25.56	2	25.82	4	356.772	1.5
366.622	2.118	42	47	LL	2	20.07	2	27.1	4	368.772	1.5
376.14	2.835	43	5	LL	2	32.79	0	37.71	2	378.989	1.5
384.739	2.453	44	77	LL	2	25.13	4	28.9	6	387.219	1.5
390.756	2.018	45	43	SS	1	24.99	2	26.24	4	392.806	1.5
399.206	2.436	46	18	SS	1	5.78	0	5.95	4	401.672	1.5
404.506	2.146	47	37	LL	2	17.36	2	19.96	4	406.68	1.5
418.956	2.335	48	28	SS	1	6.41	0	7.05	4	421.322	1.5
425.057	3.133	49	13	SS	1	16.21	0	18.64	2	428.206	1.5
433.639	2.377	50	60	LL	2	6.45	2	7.1	6	436.039	1.5
440.822	3.101	51	6	SS	1	10.5	0	13.13	2	443.95	1.5
453.089	2.785	52	26	SS	1	38.48	0	39.63	4	455.906	1.5
460.572	2.176	53	9	SS	1	22.32	0	22.54	2	462.772	1.5
466.306	2.354	54	67	LL	2	6.26	4	6.57	6	468.689	1.5
474.423	2.525	55	56	LL	2	26.96	2	40.44	6	476.972	1.5
481.422	2.977	56	44	LL	2	22.39	2	24.62	4	484.422	1.5
488.456	2.724	57	80	LL	2	9.39	4	14.08	6	491.206	1.5
501.872	1.948	58	69	LL	2	22.62	4	26.01	6	503.856	1.5
507.006	2.418	59	39	LL	2	14.56	2	19.66	4	509.456	1.5
513.406	3.272	60	57	LL	2	28.25	2	28.53	6	516.706	1.5
521.291	2.683	61	72	LL	2	29.27	4	43.91	6	523.99	1.5
534.472	3.506	62	36	LL	2	18.11	2	19.92	4	538.006	1.5
546.122	3.217	63	73	SS	1	9.59	4	9.68	6	549.372	1.5
555.272	2.015	64	63	LL	2	25.61	2	34.57	6	557.322	1.5
561.622	2.293	65	1	SS	1	37.69	0	38.07	2	563.943	1.5
567.072	2.673	66	70	LL	2	25.9	4	32.37	6	569.772	1.5
572.789	1.589	67	7	LL	2	19.45	0	26.26	2	574.406	1.5
579.372	2.943	68	46	LL	2	30.77	2	38.46	4	582.339	1.5
587.256	3.234	69	30	SS	1	25.92	0	32.4	4	590.517	1.5
596.006	2.382	70	17	SS	1	22.32	0	22.55	4	598.415	1.5
604.772	2.677	71	42	LL	2	9.5	2	9.79	4	607.472	1.5
611.289	2.167	72	41	SS	1	11.65	2	11.77	4	613.489	1.5
616.372	2.4	73	48	LL	2	22.77	2	34.16	4	618.791	1.5
624.273	3.374	74	66	SS	1	11.96	4	12.32	6	627.672	1.5
633.789	1.751	75	12	LL	2	21.96	0	24.16	2	635.556	1.5
639.856	2.2	76	54	LL	2	14.88	2	18.61	6	642.083	1.5
646.072	1.716	77	40	LL	2	12.44	2	18.66	4	647.822	1.5
651.58	2.093	78	49	SS	1	23.7	2	23.94	6	653.706	1.5
657.389	3.133	79	45	LL	2	36.8	2	42.32	4	660.556	1.5
664.939	2.768	80	58	SS	1	12.69	2	13.07	6	667.725	1.5
